#timebase=800000000(ps)
,#voltbase=20000000(uV)
#size=4064
4.00000E-06,48800.000
8.00000E-06,48800.000
1.20000E-05,49600.000
1.60000E-05,50400.000
2.00000E-05,49600.000
2.40000E-05,49600.000
2.80000E-05,50400.000
3.20000E-05,48800.000
3.60000E-05,49600.000
4.00000E-05,49600.000
4.40000E-05,48800.000
4.80000E-05,49600.000
5.20000E-05,48800.000
5.60000E-05,50400.000
6.00000E-05,48800.000
6.40000E-05,48800.000
6.80000E-05,48800.000
7.20000E-05,49600.000
7.60000E-05,49600.000
8.00000E-05,48800.000
8.40000E-05,49600.000
8.80000E-05,49600.000
9.20000E-05,49600.000
9.60000E-05,48800.000
1.00000E-04,48800.000
1.04000E-04,50400.000
1.08000E-04,49600.000
1.12000E-04,49600.000
1.16000E-04,49600.000
1.20000E-04,49600.000
1.24000E-04,48800.000
1.28000E-04,49600.000
1.32000E-04,48800.000
1.36000E-04,49600.000
1.40000E-04,49600.000
1.44000E-04,48800.000
1.48000E-04,50400.000
1.52000E-04,49600.000
1.56000E-04,47999.996
1.60000E-04,0.000
1.64000E-04,-800.000
1.68000E-04,-800.000
1.72000E-04,-800.000
1.76000E-04,0.000
1.80000E-04,0.000
1.84000E-04,-800.000
1.88000E-04,-800.000
1.92000E-04,-800.000
1.96000E-04,-800.000
2.00000E-04,-800.000
2.04000E-04,-800.000
2.08000E-04,0.000
2.12000E-04,-800.000
2.16000E-04,-800.000
2.20000E-04,0.000
2.24000E-04,-800.000
2.28000E-04,0.000
2.32000E-04,0.000
2.36000E-04,-800.000
2.40000E-04,-800.000
2.44000E-04,-800.000
2.48000E-04,0.000
2.52000E-04,-800.000
2.56000E-04,-800.000
2.60000E-04,0.000
2.64000E-04,-800.000
2.68000E-04,-800.000
2.72000E-04,-800.000
2.76000E-04,-800.000
2.80000E-04,0.000
2.84000E-04,-800.000
2.88000E-04,-800.000
2.92000E-04,-800.000
2.96000E-04,0.000
3.00000E-04,800.000
3.04000E-04,-800.000
3.08000E-04,-800.000
3.12000E-04,0.000
3.16000E-04,0.000
3.20000E-04,0.000
3.24000E-04,0.000
3.28000E-04,0.000
3.32000E-04,0.000
3.36000E-04,-800.000
3.40000E-04,-800.000
3.44000E-04,-800.000
3.48000E-04,-800.000
3.52000E-04,-800.000
3.56000E-04,0.000
3.60000E-04,800.000
3.64000E-04,-800.000
3.68000E-04,-1600.000
3.72000E-04,-800.000
3.76000E-04,0.000
3.80000E-04,-800.000
3.84000E-04,0.000
3.88000E-04,0.000
3.92000E-04,0.000
3.96000E-04,800.000
4.00000E-04,-800.000
4.04000E-04,-800.000
4.08000E-04,-800.000
4.12000E-04,-800.000
4.16000E-04,-800.000
4.20000E-04,-800.000
4.24000E-04,-800.000
4.28000E-04,0.000
4.32000E-04,0.000
4.36000E-04,800.000
4.40000E-04,0.000
4.44000E-04,0.000
4.48000E-04,0.000
4.52000E-04,0.000
4.56000E-04,-800.000
4.60000E-04,0.000
4.64000E-04,0.000
4.68000E-04,0.000
4.72000E-04,-800.000
4.76000E-04,-800.000
4.80000E-04,800.000
4.84000E-04,0.000
4.88000E-04,-800.000
4.92000E-04,0.000
4.96000E-04,-800.000
5.00000E-04,0.000
5.04000E-04,0.000
5.08000E-04,-800.000
5.12000E-04,-800.000
5.16000E-04,0.000
5.20000E-04,0.000
5.24000E-04,0.000
5.28000E-04,-800.000
5.32000E-04,0.000
5.36000E-04,800.000
5.40000E-04,0.000
5.44000E-04,0.000
5.48000E-04,-800.000
5.52000E-04,0.000
5.56000E-04,0.000
5.60000E-04,-800.000
5.64000E-04,-800.000
5.68000E-04,-800.000
5.72000E-04,-800.000
5.76000E-04,-800.000
5.80000E-04,-800.000
5.84000E-04,-800.000
5.88000E-04,0.000
5.92000E-04,-800.000
5.96000E-04,-800.000
6.00000E-04,0.000
6.04000E-04,0.000
6.08000E-04,0.000
6.12000E-04,0.000
6.16000E-04,-800.000
6.20000E-04,-800.000
6.24000E-04,-800.000
6.28000E-04,-800.000
6.32000E-04,-800.000
6.36000E-04,-800.000
6.40000E-04,-800.000
6.44000E-04,-800.000
6.48000E-04,-800.000
6.52000E-04,0.000
6.56000E-04,27200.002
6.60000E-04,48800.000
6.64000E-04,48800.000
6.68000E-04,48800.000
6.72000E-04,48800.000
6.76000E-04,49600.000
6.80000E-04,50400.000
6.84000E-04,48800.000
6.88000E-04,48800.000
6.92000E-04,49600.000
6.96000E-04,49600.000
7.00000E-04,48800.000
7.04000E-04,49600.000
7.08000E-04,48800.000
7.12000E-04,49600.000
7.16000E-04,50400.000
7.20000E-04,48800.000
7.24000E-04,49600.000
7.28000E-04,48800.000
7.32000E-04,49600.000
7.36000E-04,49600.000
7.40000E-04,48800.000
7.44000E-04,50400.000
7.48000E-04,49600.000
7.52000E-04,50400.000
7.56000E-04,50400.000
7.60000E-04,49600.000
7.64000E-04,49600.000
7.68000E-04,49600.000
7.72000E-04,49600.000
7.76000E-04,49600.000
7.80000E-04,49600.000
7.84000E-04,48800.000
7.88000E-04,49600.000
7.92000E-04,48800.000
7.96000E-04,50400.000
8.00000E-04,49600.000
8.04000E-04,50400.000
8.08000E-04,48800.000
8.12000E-04,49600.000
8.16000E-04,49600.000
8.20000E-04,49600.000
8.24000E-04,49600.000
8.28000E-04,48800.000
8.32000E-04,48800.000
8.36000E-04,50400.000
8.40000E-04,49600.000
8.44000E-04,49600.000
8.48000E-04,50400.000
8.52000E-04,48800.000
8.56000E-04,49600.000
8.60000E-04,48800.000
8.64000E-04,48800.000
8.68000E-04,50400.000
8.72000E-04,49600.000
8.76000E-04,48800.000
8.80000E-04,48800.000
8.84000E-04,48800.000
8.88000E-04,50400.000
8.92000E-04,49600.000
8.96000E-04,50400.000
9.00000E-04,49600.000
9.04000E-04,49600.000
9.08000E-04,50400.000
9.12000E-04,49600.000
9.16000E-04,50400.000
9.20000E-04,50400.000
9.24000E-04,49600.000
9.28000E-04,48800.000
9.32000E-04,49600.000
9.36000E-04,48800.000
9.40000E-04,50400.000
9.44000E-04,49600.000
9.48000E-04,49600.000
9.52000E-04,49600.000
9.56000E-04,49600.000
9.60000E-04,48800.000
9.64000E-04,49600.000
9.68000E-04,49600.000
9.72000E-04,48800.000
9.76000E-04,49600.000
9.80000E-04,49600.000
9.84000E-04,49600.000
9.88000E-04,50400.000
9.92000E-04,48800.000
9.96000E-04,48800.000
1.00000E-03,49600.000
1.00400E-03,49600.000
1.00800E-03,48800.000
1.01200E-03,48800.000
1.01600E-03,48800.000
1.02000E-03,48800.000
1.02400E-03,48800.000
1.02800E-03,49600.000
1.03200E-03,48800.000
1.03600E-03,48800.000
1.04000E-03,49600.000
1.04400E-03,49600.000
1.04800E-03,49600.000
1.05200E-03,49600.000
1.05600E-03,49600.000
1.06000E-03,49600.000
1.06400E-03,48800.000
1.06800E-03,48800.000
1.07200E-03,48800.000
1.07600E-03,48800.000
1.08000E-03,49600.000
1.08400E-03,48800.000
1.08800E-03,48800.000
1.09200E-03,48800.000
1.09600E-03,49600.000
1.10000E-03,49600.000
1.10400E-03,48800.000
1.10800E-03,49600.000
1.11200E-03,49600.000
1.11600E-03,48800.000
1.12000E-03,48800.000
1.12400E-03,50400.000
1.12800E-03,48800.000
1.13200E-03,50400.000
1.13600E-03,50400.000
1.14000E-03,49600.000
1.14400E-03,49600.000
1.14800E-03,49600.000
1.15200E-03,49600.000
1.15600E-03,47999.996
1.16000E-03,0.000
1.16400E-03,0.000
1.16800E-03,-800.000
1.17200E-03,-800.000
1.17600E-03,-800.000
1.18000E-03,-800.000
1.18400E-03,800.000
1.18800E-03,0.000
1.19200E-03,0.000
1.19600E-03,0.000
1.20000E-03,0.000
1.20400E-03,-800.000
1.20800E-03,-800.000
1.21200E-03,-800.000
1.21600E-03,0.000
1.22000E-03,0.000
1.22400E-03,-800.000
1.22800E-03,-800.000
1.23200E-03,-800.000
1.23600E-03,-800.000
1.24000E-03,-800.000
1.24400E-03,-800.000
1.24800E-03,-800.000
1.25200E-03,0.000
1.25600E-03,0.000
1.26000E-03,-800.000
1.26400E-03,-800.000
1.26800E-03,-800.000
1.27200E-03,-800.000
1.27600E-03,-800.000
1.28000E-03,-800.000
1.28400E-03,-800.000
1.28800E-03,-800.000
1.29200E-03,-800.000
1.29600E-03,-800.000
1.30000E-03,-800.000
1.30400E-03,-800.000
1.30800E-03,0.000
1.31200E-03,-800.000
1.31600E-03,-800.000
1.32000E-03,-800.000
1.32400E-03,-800.000
1.32800E-03,0.000
1.33200E-03,-800.000
1.33600E-03,-800.000
1.34000E-03,0.000
1.34400E-03,0.000
1.34800E-03,0.000
1.35200E-03,0.000
1.35600E-03,-800.000
1.36000E-03,-800.000
1.36400E-03,0.000
1.36800E-03,0.000
1.37200E-03,0.000
1.37600E-03,0.000
1.38000E-03,-800.000
1.38400E-03,-800.000
1.38800E-03,-800.000
1.39200E-03,-800.000
1.39600E-03,-800.000
1.40000E-03,0.000
1.40400E-03,-800.000
1.40800E-03,-800.000
1.41200E-03,0.000
1.41600E-03,-800.000
1.42000E-03,-800.000
1.42400E-03,0.000
1.42800E-03,800.000
1.43200E-03,0.000
1.43600E-03,0.000
1.44000E-03,0.000
1.44400E-03,-800.000
1.44800E-03,-800.000
1.45200E-03,-800.000
1.45600E-03,0.000
1.46000E-03,0.000
1.46400E-03,0.000
1.46800E-03,-800.000
1.47200E-03,-800.000
1.47600E-03,-800.000
1.48000E-03,-800.000
1.48400E-03,-800.000
1.48800E-03,-800.000
1.49200E-03,-800.000
1.49600E-03,0.000
1.50000E-03,0.000
1.50400E-03,0.000
1.50800E-03,-800.000
1.51200E-03,-800.000
1.51600E-03,0.000
1.52000E-03,-800.000
1.52400E-03,-800.000
1.52800E-03,-800.000
1.53200E-03,0.000
1.53600E-03,-800.000
1.54000E-03,-800.000
1.54400E-03,-800.000
1.54800E-03,-800.000
1.55200E-03,-800.000
1.55600E-03,0.000
1.56000E-03,0.000
1.56400E-03,0.000
1.56800E-03,-800.000
1.57200E-03,-800.000
1.57600E-03,0.000
1.58000E-03,-800.000
1.58400E-03,0.000
1.58800E-03,0.000
1.59200E-03,0.000
1.59600E-03,-800.000
1.60000E-03,0.000
1.60400E-03,0.000
1.60800E-03,0.000
1.61200E-03,-800.000
1.61600E-03,-800.000
1.62000E-03,0.000
1.62400E-03,0.000
1.62800E-03,-800.000
1.63200E-03,-800.000
1.63600E-03,-800.000
1.64000E-03,-800.000
1.64400E-03,0.000
1.64800E-03,0.000
1.65200E-03,-1600.000
1.65600E-03,26400.000
1.66000E-03,47200.004
1.66400E-03,49600.000
1.66800E-03,49600.000
1.67200E-03,49600.000
1.67600E-03,49600.000
1.68000E-03,49600.000
1.68400E-03,48800.000
1.68800E-03,49600.000
1.69200E-03,49600.000
1.69600E-03,48800.000
1.70000E-03,49600.000
1.70400E-03,48800.000
1.70800E-03,49600.000
1.71200E-03,48800.000
1.71600E-03,50400.000
1.72000E-03,49600.000
1.72400E-03,49600.000
1.72800E-03,50400.000
1.73200E-03,48800.000
1.73600E-03,48800.000
1.74000E-03,48800.000
1.74400E-03,48800.000
1.74800E-03,49600.000
1.75200E-03,49600.000
1.75600E-03,48800.000
1.76000E-03,49600.000
1.76400E-03,49600.000
1.76800E-03,50400.000
1.77200E-03,49600.000
1.77600E-03,49600.000
1.78000E-03,49600.000
1.78400E-03,48800.000
1.78800E-03,48800.000
1.79200E-03,49600.000
1.79600E-03,48800.000
1.80000E-03,49600.000
1.80400E-03,49600.000
1.80800E-03,49600.000
1.81200E-03,50400.000
1.81600E-03,48800.000
1.82000E-03,49600.000
1.82400E-03,48800.000
1.82800E-03,50400.000
1.83200E-03,48800.000
1.83600E-03,50400.000
1.84000E-03,49600.000
1.84400E-03,49600.000
1.84800E-03,48800.000
1.85200E-03,49600.000
1.85600E-03,49600.000
1.86000E-03,49600.000
1.86400E-03,48800.000
1.86800E-03,49600.000
1.87200E-03,49600.000
1.87600E-03,48800.000
1.88000E-03,49600.000
1.88400E-03,49600.000
1.88800E-03,48800.000
1.89200E-03,49600.000
1.89600E-03,49600.000
1.90000E-03,48800.000
1.90400E-03,48800.000
1.90800E-03,49600.000
1.91200E-03,48800.000
1.91600E-03,49600.000
1.92000E-03,49600.000
1.92400E-03,48800.000
1.92800E-03,50400.000
1.93200E-03,48800.000
1.93600E-03,48800.000
1.94000E-03,48800.000
1.94400E-03,49600.000
1.94800E-03,48800.000
1.95200E-03,48800.000
1.95600E-03,48800.000
1.96000E-03,49600.000
1.96400E-03,49600.000
1.96800E-03,49600.000
1.97200E-03,49600.000
1.97600E-03,48800.000
1.98000E-03,49600.000
1.98400E-03,49600.000
1.98800E-03,48800.000
1.99200E-03,50400.000
1.99600E-03,49600.000
2.00000E-03,49600.000
2.00400E-03,49600.000
2.00800E-03,50400.000
2.01200E-03,48800.000
2.01600E-03,49600.000
2.02000E-03,49600.000
2.02400E-03,50400.000
2.02800E-03,49600.000
2.03200E-03,48800.000
2.03600E-03,49600.000
2.04000E-03,48800.000
2.04400E-03,49600.000
2.04800E-03,48800.000
2.05200E-03,49600.000
2.05600E-03,48800.000
2.06000E-03,49600.000
2.06400E-03,50400.000
2.06800E-03,49600.000
2.07200E-03,49600.000
2.07600E-03,49600.000
2.08000E-03,48800.000
2.08400E-03,48800.000
2.08800E-03,48800.000
2.09200E-03,48800.000
2.09600E-03,49600.000
2.10000E-03,48800.000
2.10400E-03,48800.000
2.10800E-03,49600.000
2.11200E-03,48800.000
2.11600E-03,49600.000
2.12000E-03,48800.000
2.12400E-03,49600.000
2.12800E-03,49600.000
2.13200E-03,48800.000
2.13600E-03,49600.000
2.14000E-03,50400.000
2.14400E-03,48800.000
2.14800E-03,49600.000
2.15200E-03,49600.000
2.15600E-03,47200.004
2.16000E-03,0.000
2.16400E-03,0.000
2.16800E-03,0.000
2.17200E-03,-800.000
2.17600E-03,-800.000
2.18000E-03,-800.000
2.18400E-03,0.000
2.18800E-03,0.000
2.19200E-03,0.000
2.19600E-03,0.000
2.20000E-03,-800.000
2.20400E-03,-800.000
2.20800E-03,0.000
2.21200E-03,0.000
2.21600E-03,0.000
2.22000E-03,0.000
2.22400E-03,-800.000
2.22800E-03,-800.000
2.23200E-03,0.000
2.23600E-03,-800.000
2.24000E-03,-800.000
2.24400E-03,-800.000
2.24800E-03,-800.000
2.25200E-03,-800.000
2.25600E-03,-800.000
2.26000E-03,-800.000
2.26400E-03,-800.000
2.26800E-03,-800.000
2.27200E-03,0.000
2.27600E-03,0.000
2.28000E-03,0.000
2.28400E-03,0.000
2.28800E-03,0.000
2.29200E-03,0.000
2.29600E-03,-800.000
2.30000E-03,-800.000
2.30400E-03,0.000
2.30800E-03,0.000
2.31200E-03,-800.000
2.31600E-03,-800.000
2.32000E-03,-800.000
2.32400E-03,-800.000
2.32800E-03,-800.000
2.33200E-03,-800.000
2.33600E-03,-800.000
2.34000E-03,-800.000
2.34400E-03,0.000
2.34800E-03,0.000
2.35200E-03,-800.000
2.35600E-03,0.000
2.36000E-03,0.000
2.36400E-03,-800.000
2.36800E-03,-800.000
2.37200E-03,0.000
2.37600E-03,0.000
2.38000E-03,0.000
2.38400E-03,0.000
2.38800E-03,800.000
2.39200E-03,0.000
2.39600E-03,-800.000
2.40000E-03,0.000
2.40400E-03,-800.000
2.40800E-03,-800.000
2.41200E-03,-800.000
2.41600E-03,-800.000
2.42000E-03,-800.000
2.42400E-03,-800.000
2.42800E-03,0.000
2.43200E-03,-800.000
2.43600E-03,-800.000
2.44000E-03,-800.000
2.44400E-03,0.000
2.44800E-03,-800.000
2.45200E-03,-800.000
2.45600E-03,-800.000
2.46000E-03,-800.000
2.46400E-03,-800.000
2.46800E-03,-800.000
2.47200E-03,-800.000
2.47600E-03,0.000
2.48000E-03,0.000
2.48400E-03,-800.000
2.48800E-03,0.000
2.49200E-03,0.000
2.49600E-03,0.000
2.50000E-03,-800.000
2.50400E-03,-800.000
2.50800E-03,0.000
2.51200E-03,0.000
2.51600E-03,0.000
2.52000E-03,-800.000
2.52400E-03,-800.000
2.52800E-03,-800.000
2.53200E-03,-800.000
2.53600E-03,-800.000
2.54000E-03,-800.000
2.54400E-03,0.000
2.54800E-03,0.000
2.55200E-03,0.000
2.55600E-03,-800.000
2.56000E-03,-800.000
2.56400E-03,-800.000
2.56800E-03,-800.000
2.57200E-03,-800.000
2.57600E-03,-800.000
2.58000E-03,-800.000
2.58400E-03,0.000
2.58800E-03,0.000
2.59200E-03,0.000
2.59600E-03,0.000
2.60000E-03,-800.000
2.60400E-03,-800.000
2.60800E-03,0.000
2.61200E-03,800.000
2.61600E-03,0.000
2.62000E-03,0.000
2.62400E-03,-800.000
2.62800E-03,-800.000
2.63200E-03,-800.000
2.63600E-03,-800.000
2.64000E-03,0.000
2.64400E-03,0.000
2.64800E-03,-800.000
2.65200E-03,-800.000
2.65600E-03,28800.000
2.66000E-03,48800.000
2.66400E-03,48800.000
2.66800E-03,49600.000
2.67200E-03,48800.000
2.67600E-03,49600.000
2.68000E-03,48800.000
2.68400E-03,48800.000
2.68800E-03,50400.000
2.69200E-03,50400.000
2.69600E-03,48800.000
2.70000E-03,49600.000
2.70400E-03,49600.000
2.70800E-03,49600.000
2.71200E-03,50400.000
2.71600E-03,48800.000
2.72000E-03,49600.000
2.72400E-03,50400.000
2.72800E-03,48800.000
2.73200E-03,48800.000
2.73600E-03,49600.000
2.74000E-03,49600.000
2.74400E-03,49600.000
2.74800E-03,49600.000
2.75200E-03,49600.000
2.75600E-03,49600.000
2.76000E-03,48800.000
2.76400E-03,49600.000
2.76800E-03,49600.000
2.77200E-03,49600.000
2.77600E-03,48800.000
2.78000E-03,49600.000
2.78400E-03,48800.000
2.78800E-03,48800.000
2.79200E-03,48800.000
2.79600E-03,49600.000
2.80000E-03,50400.000
2.80400E-03,49600.000
2.80800E-03,50400.000
2.81200E-03,48800.000
2.81600E-03,48800.000
2.82000E-03,49600.000
2.82400E-03,48800.000
2.82800E-03,48800.000
2.83200E-03,48800.000
2.83600E-03,49600.000
2.84000E-03,50400.000
2.84400E-03,50400.000
2.84800E-03,49600.000
2.85200E-03,49600.000
2.85600E-03,49600.000
2.86000E-03,48800.000
2.86400E-03,48800.000
2.86800E-03,49600.000
2.87200E-03,48800.000
2.87600E-03,49600.000
2.88000E-03,49600.000
2.88400E-03,49600.000
2.88800E-03,49600.000
2.89200E-03,49600.000
2.89600E-03,49600.000
2.90000E-03,49600.000
2.90400E-03,48800.000
2.90800E-03,49600.000
2.91200E-03,48800.000
2.91600E-03,49600.000
2.92000E-03,50400.000
2.92400E-03,49600.000
2.92800E-03,49600.000
2.93200E-03,50400.000
2.93600E-03,49600.000
2.94000E-03,49600.000
2.94400E-03,48800.000
2.94800E-03,49600.000
2.95200E-03,49600.000
2.95600E-03,49600.000
2.96000E-03,48800.000
2.96400E-03,48800.000
2.96800E-03,48800.000
2.97200E-03,48800.000
2.97600E-03,48800.000
2.98000E-03,48800.000
2.98400E-03,49600.000
2.98800E-03,49600.000
2.99200E-03,49600.000
2.99600E-03,50400.000
3.00000E-03,48800.000
3.00400E-03,49600.000
3.00800E-03,49600.000
3.01200E-03,49600.000
3.01600E-03,50400.000
3.02000E-03,49600.000
3.02400E-03,49600.000
3.02800E-03,48800.000
3.03200E-03,49600.000
3.03600E-03,49600.000
3.04000E-03,49600.000
3.04400E-03,49600.000
3.04800E-03,49600.000
3.05200E-03,49600.000
3.05600E-03,48800.000
3.06000E-03,50400.000
3.06400E-03,49600.000
3.06800E-03,50400.000
3.07200E-03,48800.000
3.07600E-03,48800.000
3.08000E-03,48800.000
3.08400E-03,48800.000
3.08800E-03,48800.000
3.09200E-03,48800.000
3.09600E-03,49600.000
3.10000E-03,49600.000
3.10400E-03,49600.000
3.10800E-03,49600.000
3.11200E-03,49600.000
3.11600E-03,50400.000
3.12000E-03,48800.000
3.12400E-03,48800.000
3.12800E-03,48800.000
3.13200E-03,48800.000
3.13600E-03,49600.000
3.14000E-03,48800.000
3.14400E-03,49600.000
3.14800E-03,48800.000
3.15200E-03,49600.000
3.15600E-03,46400.000
3.16000E-03,0.000
3.16400E-03,0.000
3.16800E-03,0.000
3.17200E-03,0.000
3.17600E-03,0.000
3.18000E-03,-800.000
3.18400E-03,-800.000
3.18800E-03,-800.000
3.19200E-03,-800.000
3.19600E-03,0.000
3.20000E-03,-800.000
3.20400E-03,-800.000
3.20800E-03,0.000
3.21200E-03,-800.000
3.21600E-03,-800.000
3.22000E-03,0.000
3.22400E-03,0.000
3.22800E-03,0.000
3.23200E-03,0.000
3.23600E-03,0.000
3.24000E-03,-800.000
3.24400E-03,0.000
3.24800E-03,0.000
3.25200E-03,-800.000
3.25600E-03,-800.000
3.26000E-03,0.000
3.26400E-03,-800.000
3.26800E-03,-800.000
3.27200E-03,-800.000
3.27600E-03,0.000
3.28000E-03,-800.000
3.28400E-03,-800.000
3.28800E-03,0.000
3.29200E-03,-800.000
3.29600E-03,-800.000
3.30000E-03,-800.000
3.30400E-03,-800.000
3.30800E-03,0.000
3.31200E-03,0.000
3.31600E-03,0.000
3.32000E-03,0.000
3.32400E-03,-800.000
3.32800E-03,-800.000
3.33200E-03,-800.000
3.33600E-03,0.000
3.34000E-03,0.000
3.34400E-03,-800.000
3.34800E-03,0.000
3.35200E-03,0.000
3.35600E-03,0.000
3.36000E-03,0.000
3.36400E-03,0.000
3.36800E-03,0.000
3.37200E-03,-800.000
3.37600E-03,-800.000
3.38000E-03,-800.000
3.38400E-03,0.000
3.38800E-03,0.000
3.39200E-03,-800.000
3.39600E-03,-800.000
3.40000E-03,-800.000
3.40400E-03,0.000
3.40800E-03,-800.000
3.41200E-03,-800.000
3.41600E-03,-800.000
3.42000E-03,800.000
3.42400E-03,0.000
3.42800E-03,-800.000
3.43200E-03,0.000
3.43600E-03,-800.000
3.44000E-03,-800.000
3.44400E-03,-800.000
3.44800E-03,-800.000
3.45200E-03,0.000
3.45600E-03,0.000
3.46000E-03,0.000
3.46400E-03,-800.000
3.46800E-03,-800.000
3.47200E-03,-800.000
3.47600E-03,-800.000
3.48000E-03,-800.000
3.48400E-03,-800.000
3.48800E-03,-800.000
3.49200E-03,0.000
3.49600E-03,0.000
3.50000E-03,-800.000
3.50400E-03,-800.000
3.50800E-03,-800.000
3.51200E-03,0.000
3.51600E-03,-800.000
3.52000E-03,-800.000
3.52400E-03,-800.000
3.52800E-03,0.000
3.53200E-03,0.000
3.53600E-03,-800.000
3.54000E-03,0.000
3.54400E-03,0.000
3.54800E-03,-800.000
3.55200E-03,-800.000
3.55600E-03,-800.000
3.56000E-03,-800.000
3.56400E-03,0.000
3.56800E-03,-800.000
3.57200E-03,-800.000
3.57600E-03,-800.000
3.58000E-03,-800.000
3.58400E-03,0.000
3.58800E-03,-800.000
3.59200E-03,-800.000
3.59600E-03,-800.000
3.60000E-03,0.000
3.60400E-03,0.000
3.60800E-03,-800.000
3.61200E-03,-800.000
3.61600E-03,0.000
3.62000E-03,-800.000
3.62400E-03,-800.000
3.62800E-03,-800.000
3.63200E-03,-800.000
3.63600E-03,0.000
3.64000E-03,0.000
3.64400E-03,0.000
3.64800E-03,0.000
3.65200E-03,-800.000
3.65600E-03,28000.000
3.66000E-03,47999.996
3.66400E-03,49600.000
3.66800E-03,49600.000
3.67200E-03,50400.000
3.67600E-03,49600.000
3.68000E-03,49600.000
3.68400E-03,49600.000
3.68800E-03,48800.000
3.69200E-03,48800.000
3.69600E-03,49600.000
3.70000E-03,50400.000
3.70400E-03,49600.000
3.70800E-03,50400.000
3.71200E-03,48800.000
3.71600E-03,49600.000
3.72000E-03,49600.000
3.72400E-03,50400.000
3.72800E-03,49600.000
3.73200E-03,49600.000
3.73600E-03,50400.000
3.74000E-03,49600.000
3.74400E-03,49600.000
3.74800E-03,49600.000
3.75200E-03,48800.000
3.75600E-03,48800.000
3.76000E-03,48800.000
3.76400E-03,49600.000
3.76800E-03,49600.000
3.77200E-03,50400.000
3.77600E-03,49600.000
3.78000E-03,50400.000
3.78400E-03,50400.000
3.78800E-03,49600.000
3.79200E-03,49600.000
3.79600E-03,49600.000
3.80000E-03,49600.000
3.80400E-03,48800.000
3.80800E-03,48800.000
3.81200E-03,49600.000
3.81600E-03,49600.000
3.82000E-03,49600.000
3.82400E-03,48800.000
3.82800E-03,49600.000
3.83200E-03,50400.000
3.83600E-03,49600.000
3.84000E-03,48800.000
3.84400E-03,49600.000
3.84800E-03,49600.000
3.85200E-03,48800.000
3.85600E-03,49600.000
3.86000E-03,49600.000
3.86400E-03,49600.000
3.86800E-03,49600.000
3.87200E-03,49600.000
3.87600E-03,49600.000
3.88000E-03,48800.000
3.88400E-03,48800.000
3.88800E-03,48800.000
3.89200E-03,48800.000
3.89600E-03,49600.000
3.90000E-03,50400.000
3.90400E-03,49600.000
3.90800E-03,50400.000
3.91200E-03,49600.000
3.91600E-03,50400.000
3.92000E-03,50400.000
3.92400E-03,49600.000
3.92800E-03,49600.000
3.93200E-03,50400.000
3.93600E-03,49600.000
3.94000E-03,48800.000
3.94400E-03,49600.000
3.94800E-03,48800.000
3.95200E-03,49600.000
3.95600E-03,49600.000
3.96000E-03,49600.000
3.96400E-03,50400.000
3.96800E-03,49600.000
3.97200E-03,49600.000
3.97600E-03,49600.000
3.98000E-03,49600.000
3.98400E-03,49600.000
3.98800E-03,48800.000
3.99200E-03,49600.000
3.99600E-03,48800.000
4.00000E-03,50400.000
4.00400E-03,48800.000
4.00800E-03,49600.000
4.01200E-03,48800.000
4.01600E-03,49600.000
4.02000E-03,49600.000
4.02400E-03,48800.000
4.02800E-03,48800.000
4.03200E-03,48800.000
4.03600E-03,48800.000
4.04000E-03,49600.000
4.04400E-03,48800.000
4.04800E-03,50400.000
4.05200E-03,49600.000
4.05600E-03,49600.000
4.06000E-03,50400.000
4.06400E-03,48800.000
4.06800E-03,48800.000
4.07200E-03,49600.000
4.07600E-03,50400.000
4.08000E-03,48800.000
4.08400E-03,50400.000
4.08800E-03,48800.000
4.09200E-03,49600.000
4.09600E-03,48800.000
4.10000E-03,49600.000
4.10400E-03,49600.000
4.10800E-03,50400.000
4.11200E-03,49600.000
4.11600E-03,49600.000
4.12000E-03,49600.000
4.12400E-03,49600.000
4.12800E-03,48800.000
4.13200E-03,48800.000
4.13600E-03,48800.000
4.14000E-03,49600.000
4.14400E-03,48800.000
4.14800E-03,48800.000
4.15200E-03,49600.000
4.15600E-03,45600.000
4.16000E-03,800.000
4.16400E-03,0.000
4.16800E-03,-800.000
4.17200E-03,-800.000
4.17600E-03,-800.000
4.18000E-03,0.000
4.18400E-03,800.000
4.18800E-03,-800.000
4.19200E-03,0.000
4.19600E-03,-800.000
4.20000E-03,-800.000
4.20400E-03,-800.000
4.20800E-03,-800.000
4.21200E-03,-800.000
4.21600E-03,-800.000
4.22000E-03,-800.000
4.22400E-03,-800.000
4.22800E-03,-800.000
4.23200E-03,-800.000
4.23600E-03,0.000
4.24000E-03,0.000
4.24400E-03,0.000
4.24800E-03,-800.000
4.25200E-03,0.000
4.25600E-03,-800.000
4.26000E-03,-800.000
4.26400E-03,-800.000
4.26800E-03,0.000
4.27200E-03,0.000
4.27600E-03,-800.000
4.28000E-03,-800.000
4.28400E-03,-800.000
4.28800E-03,0.000
4.29200E-03,-800.000
4.29600E-03,-800.000
4.30000E-03,0.000
4.30400E-03,-800.000
4.30800E-03,0.000
4.31200E-03,0.000
4.31600E-03,0.000
4.32000E-03,0.000
4.32400E-03,-800.000
4.32800E-03,-800.000
4.33200E-03,-800.000
4.33600E-03,0.000
4.34000E-03,0.000
4.34400E-03,-800.000
4.34800E-03,-800.000
4.35200E-03,-800.000
4.35600E-03,-800.000
4.36000E-03,0.000
4.36400E-03,0.000
4.36800E-03,-800.000
4.37200E-03,-800.000
4.37600E-03,-800.000
4.38000E-03,0.000
4.38400E-03,-800.000
4.38800E-03,-800.000
4.39200E-03,-800.000
4.39600E-03,-800.000
4.40000E-03,0.000
4.40400E-03,0.000
4.40800E-03,-800.000
4.41200E-03,-800.000
4.41600E-03,0.000
4.42000E-03,-800.000
4.42400E-03,0.000
4.42800E-03,-800.000
4.43200E-03,-800.000
4.43600E-03,0.000
4.44000E-03,-800.000
4.44400E-03,0.000
4.44800E-03,-800.000
4.45200E-03,-800.000
4.45600E-03,0.000
4.46000E-03,0.000
4.46400E-03,-800.000
4.46800E-03,-800.000
4.47200E-03,0.000
4.47600E-03,-800.000
4.48000E-03,-800.000
4.48400E-03,-800.000
4.48800E-03,-800.000
4.49200E-03,-800.000
4.49600E-03,-800.000
4.50000E-03,0.000
4.50400E-03,0.000
4.50800E-03,-800.000
4.51200E-03,-800.000
4.51600E-03,0.000
4.52000E-03,-800.000
4.52400E-03,-800.000
4.52800E-03,-800.000
4.53200E-03,-800.000
4.53600E-03,0.000
4.54000E-03,0.000
4.54400E-03,0.000
4.54800E-03,-800.000
4.55200E-03,0.000
4.55600E-03,-800.000
4.56000E-03,-800.000
4.56400E-03,0.000
4.56800E-03,0.000
4.57200E-03,0.000
4.57600E-03,0.000
4.58000E-03,0.000
4.58400E-03,-800.000
4.58800E-03,0.000
4.59200E-03,-800.000
4.59600E-03,-800.000
4.60000E-03,-800.000
4.60400E-03,0.000
4.60800E-03,0.000
4.61200E-03,-800.000
4.61600E-03,-800.000
4.62000E-03,0.000
4.62400E-03,-800.000
4.62800E-03,-800.000
4.63200E-03,0.000
4.63600E-03,-800.000
4.64000E-03,-800.000
4.64400E-03,-800.000
4.64800E-03,0.000
4.65200E-03,0.000
4.65600E-03,29600.000
4.66000E-03,47999.996
4.66400E-03,48800.000
4.66800E-03,49600.000
4.67200E-03,49600.000
4.67600E-03,49600.000
4.68000E-03,49600.000
4.68400E-03,48800.000
4.68800E-03,48800.000
4.69200E-03,49600.000
4.69600E-03,49600.000
4.70000E-03,48800.000
4.70400E-03,48800.000
4.70800E-03,48800.000
4.71200E-03,50400.000
4.71600E-03,48800.000
4.72000E-03,49600.000
4.72400E-03,48800.000
4.72800E-03,49600.000
4.73200E-03,49600.000
4.73600E-03,48800.000
4.74000E-03,50400.000
4.74400E-03,50400.000
4.74800E-03,50400.000
4.75200E-03,50400.000
4.75600E-03,49600.000
4.76000E-03,48800.000
4.76400E-03,50400.000
4.76800E-03,49600.000
4.77200E-03,50400.000
4.77600E-03,50400.000
4.78000E-03,49600.000
4.78400E-03,49600.000
4.78800E-03,48800.000
4.79200E-03,50400.000
4.79600E-03,50400.000
4.80000E-03,49600.000
4.80400E-03,48800.000
4.80800E-03,50400.000
4.81200E-03,50400.000
4.81600E-03,48800.000
4.82000E-03,49600.000
4.82400E-03,49600.000
4.82800E-03,50400.000
4.83200E-03,49600.000
4.83600E-03,49600.000
4.84000E-03,48800.000
4.84400E-03,49600.000
4.84800E-03,49600.000
4.85200E-03,49600.000
4.85600E-03,48800.000
4.86000E-03,50400.000
4.86400E-03,49600.000
4.86800E-03,48800.000
4.87200E-03,49600.000
4.87600E-03,48800.000
4.88000E-03,50400.000
4.88400E-03,48800.000
4.88800E-03,49600.000
4.89200E-03,49600.000
4.89600E-03,49600.000
4.90000E-03,50400.000
4.90400E-03,50400.000
4.90800E-03,49600.000
4.91200E-03,49600.000
4.91600E-03,48800.000
4.92000E-03,48800.000
4.92400E-03,49600.000
4.92800E-03,49600.000
4.93200E-03,49600.000
4.93600E-03,48800.000
4.94000E-03,48800.000
4.94400E-03,48800.000
4.94800E-03,50400.000
4.95200E-03,50400.000
4.95600E-03,49600.000
4.96000E-03,48800.000
4.96400E-03,49600.000
4.96800E-03,48800.000
4.97200E-03,48800.000
4.97600E-03,49600.000
4.98000E-03,49600.000
4.98400E-03,49600.000
4.98800E-03,49600.000
4.99200E-03,49600.000
4.99600E-03,49600.000
5.00000E-03,49600.000
5.00400E-03,49600.000
5.00800E-03,48800.000
5.01200E-03,48800.000
5.01600E-03,50400.000
5.02000E-03,49600.000
5.02400E-03,48800.000
5.02800E-03,50400.000
5.03200E-03,49600.000
5.03600E-03,49600.000
5.04000E-03,49600.000
5.04400E-03,48800.000
5.04800E-03,49600.000
5.05200E-03,49600.000
5.05600E-03,49600.000
5.06000E-03,49600.000
5.06400E-03,48800.000
5.06800E-03,49600.000
5.07200E-03,49600.000
5.07600E-03,48800.000
5.08000E-03,49600.000
5.08400E-03,48800.000
5.08800E-03,49600.000
5.09200E-03,48800.000
5.09600E-03,48800.000
5.10000E-03,48800.000
5.10400E-03,48800.000
5.10800E-03,49600.000
5.11200E-03,49600.000
5.11600E-03,48800.000
5.12000E-03,49600.000
5.12400E-03,49600.000
5.12800E-03,48800.000
5.13200E-03,48800.000
5.13600E-03,49600.000
5.14000E-03,50400.000
5.14400E-03,49600.000
5.14800E-03,49600.000
5.15200E-03,48800.000
5.15600E-03,44800.000
5.16000E-03,0.000
5.16400E-03,-800.000
5.16800E-03,-800.000
5.17200E-03,0.000
5.17600E-03,-800.000
5.18000E-03,0.000
5.18400E-03,-800.000
5.18800E-03,0.000
5.19200E-03,-800.000
5.19600E-03,-800.000
5.20000E-03,800.000
5.20400E-03,-800.000
5.20800E-03,-800.000
5.21200E-03,0.000
5.21600E-03,-800.000
5.22000E-03,-800.000
5.22400E-03,0.000
5.22800E-03,0.000
5.23200E-03,0.000
5.23600E-03,-800.000
5.24000E-03,-800.000
5.24400E-03,-800.000
5.24800E-03,0.000
5.25200E-03,-800.000
5.25600E-03,-800.000
5.26000E-03,0.000
5.26400E-03,-800.000
5.26800E-03,-800.000
5.27200E-03,-800.000
5.27600E-03,-800.000
5.28000E-03,-800.000
5.28400E-03,0.000
5.28800E-03,-800.000
5.29200E-03,-800.000
5.29600E-03,0.000
5.30000E-03,0.000
5.30400E-03,-800.000
5.30800E-03,-800.000
5.31200E-03,0.000
5.31600E-03,0.000
5.32000E-03,-800.000
5.32400E-03,-800.000
5.32800E-03,0.000
5.33200E-03,-800.000
5.33600E-03,-800.000
5.34000E-03,-800.000
5.34400E-03,-800.000
5.34800E-03,0.000
5.35200E-03,0.000
5.35600E-03,0.000
5.36000E-03,0.000
5.36400E-03,0.000
5.36800E-03,0.000
5.37200E-03,0.000
5.37600E-03,-800.000
5.38000E-03,-800.000
5.38400E-03,-800.000
5.38800E-03,0.000
5.39200E-03,0.000
5.39600E-03,-800.000
5.40000E-03,-800.000
5.40400E-03,-800.000
5.40800E-03,-800.000
5.41200E-03,0.000
5.41600E-03,-800.000
5.42000E-03,-800.000
5.42400E-03,0.000
5.42800E-03,0.000
5.43200E-03,-800.000
5.43600E-03,-800.000
5.44000E-03,-800.000
5.44400E-03,-800.000
5.44800E-03,-800.000
5.45200E-03,0.000
5.45600E-03,-800.000
5.46000E-03,-800.000
5.46400E-03,0.000
5.46800E-03,-800.000
5.47200E-03,0.000
5.47600E-03,-800.000
5.48000E-03,-800.000
5.48400E-03,0.000
5.48800E-03,-800.000
5.49200E-03,-800.000
5.49600E-03,0.000
5.50000E-03,-800.000
5.50400E-03,-800.000
5.50800E-03,-800.000
5.51200E-03,-800.000
5.51600E-03,-800.000
5.52000E-03,0.000
5.52400E-03,-800.000
5.52800E-03,-800.000
5.53200E-03,0.000
5.53600E-03,-800.000
5.54000E-03,-800.000
5.54400E-03,-800.000
5.54800E-03,-800.000
5.55200E-03,0.000
5.55600E-03,-800.000
5.56000E-03,-800.000
5.56400E-03,0.000
5.56800E-03,-800.000
5.57200E-03,-800.000
5.57600E-03,-800.000
5.58000E-03,0.000
5.58400E-03,0.000
5.58800E-03,0.000
5.59200E-03,0.000
5.59600E-03,0.000
5.60000E-03,0.000
5.60400E-03,-800.000
5.60800E-03,0.000
5.61200E-03,0.000
5.61600E-03,-800.000
5.62000E-03,-800.000
5.62400E-03,-800.000
5.62800E-03,-800.000
5.63200E-03,-800.000
5.63600E-03,-800.000
5.64000E-03,-800.000
5.64400E-03,-800.000
5.64800E-03,-800.000
5.65200E-03,-800.000
5.65600E-03,29600.000
5.66000E-03,47999.996
5.66400E-03,48800.000
5.66800E-03,48800.000
5.67200E-03,48800.000
5.67600E-03,49600.000
5.68000E-03,49600.000
5.68400E-03,50400.000
5.68800E-03,49600.000
5.69200E-03,49600.000
5.69600E-03,48800.000
5.70000E-03,49600.000
5.70400E-03,48800.000
5.70800E-03,48800.000
5.71200E-03,48800.000
5.71600E-03,49600.000
5.72000E-03,48800.000
5.72400E-03,49600.000
5.72800E-03,48800.000
5.73200E-03,50400.000
5.73600E-03,49600.000
5.74000E-03,49600.000
5.74400E-03,49600.000
5.74800E-03,49600.000
5.75200E-03,48800.000
5.75600E-03,50400.000
5.76000E-03,50400.000
5.76400E-03,49600.000
5.76800E-03,49600.000
5.77200E-03,49600.000
5.77600E-03,48800.000
5.78000E-03,50400.000
5.78400E-03,48800.000
5.78800E-03,50400.000
5.79200E-03,50400.000
5.79600E-03,49600.000
5.80000E-03,48800.000
5.80400E-03,50400.000
5.80800E-03,49600.000
5.81200E-03,50400.000
5.81600E-03,50400.000
5.82000E-03,49600.000
5.82400E-03,50400.000
5.82800E-03,49600.000
5.83200E-03,49600.000
5.83600E-03,48800.000
5.84000E-03,49600.000
5.84400E-03,49600.000
5.84800E-03,49600.000
5.85200E-03,50400.000
5.85600E-03,49600.000
5.86000E-03,49600.000
5.86400E-03,48800.000
5.86800E-03,49600.000
5.87200E-03,48800.000
5.87600E-03,49600.000
5.88000E-03,50400.000
5.88400E-03,49600.000
5.88800E-03,49600.000
5.89200E-03,48800.000
5.89600E-03,49600.000
5.90000E-03,50400.000
5.90400E-03,48800.000
5.90800E-03,49600.000
5.91200E-03,49600.000
5.91600E-03,50400.000
5.92000E-03,49600.000
5.92400E-03,50400.000
5.92800E-03,49600.000
5.93200E-03,48800.000
5.93600E-03,48800.000
5.94000E-03,48800.000
5.94400E-03,49600.000
5.94800E-03,50400.000
5.95200E-03,49600.000
5.95600E-03,48800.000
5.96000E-03,49600.000
5.96400E-03,49600.000
5.96800E-03,49600.000
5.97200E-03,49600.000
5.97600E-03,49600.000
5.98000E-03,49600.000
5.98400E-03,48800.000
5.98800E-03,49600.000
5.99200E-03,48800.000
5.99600E-03,49600.000
6.00000E-03,48800.000
6.00400E-03,49600.000
6.00800E-03,49600.000
6.01200E-03,49600.000
6.01600E-03,49600.000
6.02000E-03,49600.000
6.02400E-03,49600.000
6.02800E-03,49600.000
6.03200E-03,49600.000
6.03600E-03,48800.000
6.04000E-03,50400.000
6.04400E-03,49600.000
6.04800E-03,49600.000
6.05200E-03,49600.000
6.05600E-03,49600.000
6.06000E-03,49600.000
6.06400E-03,48800.000
6.06800E-03,48800.000
6.07200E-03,49600.000
6.07600E-03,49600.000
6.08000E-03,48800.000
6.08400E-03,49600.000
6.08800E-03,49600.000
6.09200E-03,48800.000
6.09600E-03,49600.000
6.10000E-03,49600.000
6.10400E-03,49600.000
6.10800E-03,49600.000
6.11200E-03,48800.000
6.11600E-03,48800.000
6.12000E-03,49600.000
6.12400E-03,48800.000
6.12800E-03,48800.000
6.13200E-03,49600.000
6.13600E-03,49600.000
6.14000E-03,48800.000
6.14400E-03,48800.000
6.14800E-03,49600.000
6.15200E-03,49600.000
6.15600E-03,44000.000
6.16000E-03,-800.000
6.16400E-03,0.000
6.16800E-03,0.000
6.17200E-03,800.000
6.17600E-03,-800.000
6.18000E-03,-800.000
6.18400E-03,-800.000
6.18800E-03,-800.000
6.19200E-03,0.000
6.19600E-03,-800.000
6.20000E-03,0.000
6.20400E-03,-800.000
6.20800E-03,-800.000
6.21200E-03,-800.000
6.21600E-03,-800.000
6.22000E-03,-800.000
6.22400E-03,0.000
6.22800E-03,-800.000
6.23200E-03,-800.000
6.23600E-03,-800.000
6.24000E-03,800.000
6.24400E-03,-800.000
6.24800E-03,-800.000
6.25200E-03,0.000
6.25600E-03,0.000
6.26000E-03,-800.000
6.26400E-03,-800.000
6.26800E-03,0.000
6.27200E-03,-800.000
6.27600E-03,-800.000
6.28000E-03,0.000
6.28400E-03,800.000
6.28800E-03,0.000
6.29200E-03,0.000
6.29600E-03,-800.000
6.30000E-03,0.000
6.30400E-03,-800.000
6.30800E-03,-800.000
6.31200E-03,0.000
6.31600E-03,-800.000
6.32000E-03,0.000
6.32400E-03,-800.000
6.32800E-03,-800.000
6.33200E-03,-800.000
6.33600E-03,-800.000
6.34000E-03,0.000
6.34400E-03,0.000
6.34800E-03,-800.000
6.35200E-03,0.000
6.35600E-03,-800.000
6.36000E-03,-800.000
6.36400E-03,-800.000
6.36800E-03,-800.000
6.37200E-03,-800.000
6.37600E-03,-800.000
6.38000E-03,-800.000
6.38400E-03,0.000
6.38800E-03,-800.000
6.39200E-03,-800.000
6.39600E-03,-800.000
6.40000E-03,0.000
6.40400E-03,-800.000
6.40800E-03,-800.000
6.41200E-03,-800.000
6.41600E-03,-800.000
6.42000E-03,-800.000
6.42400E-03,-800.000
6.42800E-03,-800.000
6.43200E-03,-800.000
6.43600E-03,-800.000
6.44000E-03,800.000
6.44400E-03,0.000
6.44800E-03,0.000
6.45200E-03,0.000
6.45600E-03,0.000
6.46000E-03,-800.000
6.46400E-03,-800.000
6.46800E-03,0.000
6.47200E-03,0.000
6.47600E-03,-800.000
6.48000E-03,-800.000
6.48400E-03,-800.000
6.48800E-03,0.000
6.49200E-03,-800.000
6.49600E-03,-800.000
6.50000E-03,-800.000
6.50400E-03,-800.000
6.50800E-03,-800.000
6.51200E-03,0.000
6.51600E-03,0.000
6.52000E-03,0.000
6.52400E-03,0.000
6.52800E-03,-800.000
6.53200E-03,0.000
6.53600E-03,-800.000
6.54000E-03,-800.000
6.54400E-03,0.000
6.54800E-03,-800.000
6.55200E-03,-800.000
6.55600E-03,-800.000
6.56000E-03,-800.000
6.56400E-03,-800.000
6.56800E-03,0.000
6.57200E-03,-800.000
6.57600E-03,-800.000
6.58000E-03,-800.000
6.58400E-03,0.000
6.58800E-03,-800.000
6.59200E-03,-800.000
6.59600E-03,0.000
6.60000E-03,0.000
6.60400E-03,0.000
6.60800E-03,0.000
6.61200E-03,-800.000
6.61600E-03,-800.000
6.62000E-03,-800.000
6.62400E-03,0.000
6.62800E-03,0.000
6.63200E-03,0.000
6.63600E-03,800.000
6.64000E-03,-800.000
6.64400E-03,-800.000
6.64800E-03,-800.000
6.65200E-03,-800.000
6.65600E-03,30400.000
6.66000E-03,47999.996
6.66400E-03,49600.000
6.66800E-03,49600.000
6.67200E-03,49600.000
6.67600E-03,48800.000
6.68000E-03,49600.000
6.68400E-03,49600.000
6.68800E-03,50400.000
6.69200E-03,49600.000
6.69600E-03,49600.000
6.70000E-03,50400.000
6.70400E-03,48800.000
6.70800E-03,49600.000
6.71200E-03,50400.000
6.71600E-03,48800.000
6.72000E-03,49600.000
6.72400E-03,49600.000
6.72800E-03,48800.000
6.73200E-03,49600.000
6.73600E-03,50400.000
6.74000E-03,50400.000
6.74400E-03,49600.000
6.74800E-03,49600.000
6.75200E-03,48800.000
6.75600E-03,48800.000
6.76000E-03,48800.000
6.76400E-03,49600.000
6.76800E-03,48800.000
6.77200E-03,48800.000
6.77600E-03,48800.000
6.78000E-03,48800.000
6.78400E-03,48800.000
6.78800E-03,49600.000
6.79200E-03,49600.000
6.79600E-03,50400.000
6.80000E-03,50400.000
6.80400E-03,48800.000
6.80800E-03,48800.000
6.81200E-03,48800.000
6.81600E-03,50400.000
6.82000E-03,49600.000
6.82400E-03,49600.000
6.82800E-03,49600.000
6.83200E-03,49600.000
6.83600E-03,49600.000
6.84000E-03,48800.000
6.84400E-03,48800.000
6.84800E-03,49600.000
6.85200E-03,49600.000
6.85600E-03,49600.000
6.86000E-03,48800.000
6.86400E-03,49600.000
6.86800E-03,49600.000
6.87200E-03,48800.000
6.87600E-03,48800.000
6.88000E-03,49600.000
6.88400E-03,48800.000
6.88800E-03,48800.000
6.89200E-03,50400.000
6.89600E-03,48800.000
6.90000E-03,49600.000
6.90400E-03,49600.000
6.90800E-03,49600.000
6.91200E-03,48800.000
6.91600E-03,49600.000
6.92000E-03,49600.000
6.92400E-03,49600.000
6.92800E-03,49600.000
6.93200E-03,48800.000
6.93600E-03,49600.000
6.94000E-03,49600.000
6.94400E-03,49600.000
6.94800E-03,49600.000
6.95200E-03,48800.000
6.95600E-03,49600.000
6.96000E-03,50400.000
6.96400E-03,50400.000
6.96800E-03,49600.000
6.97200E-03,50400.000
6.97600E-03,49600.000
6.98000E-03,48800.000
6.98400E-03,50400.000
6.98800E-03,48800.000
6.99200E-03,49600.000
6.99600E-03,48800.000
7.00000E-03,50400.000
7.00400E-03,48800.000
7.00800E-03,48800.000
7.01200E-03,50400.000
7.01600E-03,49600.000
7.02000E-03,49600.000
7.02400E-03,49600.000
7.02800E-03,50400.000
7.03200E-03,48800.000
7.03600E-03,48800.000
7.04000E-03,49600.000
7.04400E-03,49600.000
7.04800E-03,50400.000
7.05200E-03,49600.000
7.05600E-03,48800.000
7.06000E-03,49600.000
7.06400E-03,49600.000
7.06800E-03,49600.000
7.07200E-03,48800.000
7.07600E-03,48800.000
7.08000E-03,50400.000
7.08400E-03,48800.000
7.08800E-03,49600.000
7.09200E-03,48800.000
7.09600E-03,49600.000
7.10000E-03,50400.000
7.10400E-03,49600.000
7.10800E-03,50400.000
7.11200E-03,48800.000
7.11600E-03,49600.000
7.12000E-03,50400.000
7.12400E-03,48800.000
7.12800E-03,48800.000
7.13200E-03,49600.000
7.13600E-03,50400.000
7.14000E-03,48800.000
7.14400E-03,49600.000
7.14800E-03,50400.000
7.15200E-03,50400.000
7.15600E-03,43200.000
7.16000E-03,0.000
7.16400E-03,0.000
7.16800E-03,0.000
7.17200E-03,-800.000
7.17600E-03,-800.000
7.18000E-03,800.000
7.18400E-03,0.000
7.18800E-03,0.000
7.19200E-03,0.000
7.19600E-03,-800.000
7.20000E-03,0.000
7.20400E-03,-800.000
7.20800E-03,-800.000
7.21200E-03,-800.000
7.21600E-03,-800.000
7.22000E-03,-800.000
7.22400E-03,0.000
7.22800E-03,0.000
7.23200E-03,-800.000
7.23600E-03,-800.000
7.24000E-03,0.000
7.24400E-03,0.000
7.24800E-03,-800.000
7.25200E-03,-800.000
7.25600E-03,-800.000
7.26000E-03,0.000
7.26400E-03,-800.000
7.26800E-03,-800.000
7.27200E-03,0.000
7.27600E-03,-800.000
7.28000E-03,-800.000
7.28400E-03,0.000
7.28800E-03,0.000
7.29200E-03,0.000
7.29600E-03,-800.000
7.30000E-03,-800.000
7.30400E-03,-800.000
7.30800E-03,-800.000
7.31200E-03,-800.000
7.31600E-03,-800.000
7.32000E-03,0.000
7.32400E-03,0.000
7.32800E-03,-800.000
7.33200E-03,-800.000
7.33600E-03,-800.000
7.34000E-03,0.000
7.34400E-03,-800.000
7.34800E-03,0.000
7.35200E-03,-800.000
7.35600E-03,-800.000
7.36000E-03,-800.000
7.36400E-03,-800.000
7.36800E-03,-800.000
7.37200E-03,-800.000
7.37600E-03,0.000
7.38000E-03,-800.000
7.38400E-03,-800.000
7.38800E-03,0.000
7.39200E-03,-800.000
7.39600E-03,-800.000
7.40000E-03,0.000
7.40400E-03,-800.000
7.40800E-03,-800.000
7.41200E-03,-800.000
7.41600E-03,0.000
7.42000E-03,-800.000
7.42400E-03,-800.000
7.42800E-03,0.000
7.43200E-03,-800.000
7.43600E-03,-800.000
7.44000E-03,0.000
7.44400E-03,-800.000
7.44800E-03,0.000
7.45200E-03,-800.000
7.45600E-03,-800.000
7.46000E-03,-800.000
7.46400E-03,-800.000
7.46800E-03,-800.000
7.47200E-03,-800.000
7.47600E-03,-800.000
7.48000E-03,0.000
7.48400E-03,-800.000
7.48800E-03,-800.000
7.49200E-03,-800.000
7.49600E-03,0.000
7.50000E-03,-800.000
7.50400E-03,-800.000
7.50800E-03,0.000
7.51200E-03,-800.000
7.51600E-03,-800.000
7.52000E-03,-800.000
7.52400E-03,0.000
7.52800E-03,-800.000
7.53200E-03,800.000
7.53600E-03,-800.000
7.54000E-03,0.000
7.54400E-03,-800.000
7.54800E-03,-800.000
7.55200E-03,-800.000
7.55600E-03,-800.000
7.56000E-03,0.000
7.56400E-03,-800.000
7.56800E-03,-800.000
7.57200E-03,0.000
7.57600E-03,-800.000
7.58000E-03,-800.000
7.58400E-03,0.000
7.58800E-03,0.000
7.59200E-03,-800.000
7.59600E-03,-800.000
7.60000E-03,0.000
7.60400E-03,-800.000
7.60800E-03,-800.000
7.61200E-03,-800.000
7.61600E-03,-800.000
7.62000E-03,-800.000
7.62400E-03,0.000
7.62800E-03,-800.000
7.63200E-03,-800.000
7.63600E-03,0.000
7.64000E-03,0.000
7.64400E-03,0.000
7.64800E-03,-800.000
7.65200E-03,-800.000
7.65600E-03,31199.998
7.66000E-03,47999.996
7.66400E-03,49600.000
7.66800E-03,49600.000
7.67200E-03,50400.000
7.67600E-03,49600.000
7.68000E-03,49600.000
7.68400E-03,49600.000
7.68800E-03,49600.000
7.69200E-03,48800.000
7.69600E-03,49600.000
7.70000E-03,48800.000
7.70400E-03,48800.000
7.70800E-03,50400.000
7.71200E-03,49600.000
7.71600E-03,48800.000
7.72000E-03,48800.000
7.72400E-03,48800.000
7.72800E-03,49600.000
7.73200E-03,48800.000
7.73600E-03,48800.000
7.74000E-03,49600.000
7.74400E-03,48800.000
7.74800E-03,49600.000
7.75200E-03,49600.000
7.75600E-03,48800.000
7.76000E-03,49600.000
7.76400E-03,48800.000
7.76800E-03,48800.000
7.77200E-03,50400.000
7.77600E-03,49600.000
7.78000E-03,50400.000
7.78400E-03,49600.000
7.78800E-03,49600.000
7.79200E-03,50400.000
7.79600E-03,48800.000
7.80000E-03,49600.000
7.80400E-03,49600.000
7.80800E-03,49600.000
7.81200E-03,48800.000
7.81600E-03,48800.000
7.82000E-03,49600.000
7.82400E-03,49600.000
7.82800E-03,48800.000
7.83200E-03,50400.000
7.83600E-03,49600.000
7.84000E-03,49600.000
7.84400E-03,49600.000
7.84800E-03,48800.000
7.85200E-03,49600.000
7.85600E-03,49600.000
7.86000E-03,49600.000
7.86400E-03,49600.000
7.86800E-03,49600.000
7.87200E-03,49600.000
7.87600E-03,49600.000
7.88000E-03,49600.000
7.88400E-03,48800.000
7.88800E-03,50400.000
7.89200E-03,49600.000
7.89600E-03,49600.000
7.90000E-03,48800.000
7.90400E-03,48800.000
7.90800E-03,50400.000
7.91200E-03,48800.000
7.91600E-03,49600.000
7.92000E-03,49600.000
7.92400E-03,49600.000
7.92800E-03,50400.000
7.93200E-03,49600.000
7.93600E-03,49600.000
7.94000E-03,49600.000
7.94400E-03,49600.000
7.94800E-03,48800.000
7.95200E-03,50400.000
7.95600E-03,49600.000
7.96000E-03,48800.000
7.96400E-03,49600.000
7.96800E-03,48800.000
7.97200E-03,48800.000
7.97600E-03,48800.000
7.98000E-03,49600.000
7.98400E-03,48800.000
7.98800E-03,48800.000
7.99200E-03,49600.000
7.99600E-03,48800.000
8.00000E-03,49600.000
8.00400E-03,49600.000
8.00800E-03,49600.000
8.01200E-03,49600.000
8.01600E-03,48800.000
8.02000E-03,48800.000
8.02400E-03,49600.000
8.02800E-03,49600.000
8.03200E-03,49600.000
8.03600E-03,49600.000
8.04000E-03,48800.000
8.04400E-03,49600.000
8.04800E-03,48800.000
8.05200E-03,48800.000
8.05600E-03,49600.000
8.06000E-03,49600.000
8.06400E-03,49600.000
8.06800E-03,49600.000
8.07200E-03,49600.000
8.07600E-03,48800.000
8.08000E-03,49600.000
8.08400E-03,49600.000
8.08800E-03,49600.000
8.09200E-03,48800.000
8.09600E-03,48800.000
8.10000E-03,48800.000
8.10400E-03,49600.000
8.10800E-03,49600.000
8.11200E-03,49600.000
8.11600E-03,48800.000
8.12000E-03,49600.000
8.12400E-03,50400.000
8.12800E-03,49600.000
8.13200E-03,48800.000
8.13600E-03,49600.000
8.14000E-03,49600.000
8.14400E-03,49600.000
8.14800E-03,49600.000
8.15200E-03,48800.000
8.15600E-03,42400.000
8.16000E-03,0.000
8.16400E-03,0.000
8.16800E-03,0.000
8.17200E-03,0.000
8.17600E-03,0.000
8.18000E-03,-800.000
8.18400E-03,-800.000
8.18800E-03,0.000
8.19200E-03,0.000
8.19600E-03,-800.000
8.20000E-03,-800.000
8.20400E-03,0.000
8.20800E-03,0.000
8.21200E-03,-800.000
8.21600E-03,-800.000
8.22000E-03,0.000
8.22400E-03,0.000
8.22800E-03,0.000
8.23200E-03,-800.000
8.23600E-03,0.000
8.24000E-03,0.000
8.24400E-03,0.000
8.24800E-03,0.000
8.25200E-03,0.000
8.25600E-03,0.000
8.26000E-03,-800.000
8.26400E-03,-800.000
8.26800E-03,-800.000
8.27200E-03,-800.000
8.27600E-03,-800.000
8.28000E-03,-800.000
8.28400E-03,-800.000
8.28800E-03,-800.000
8.29200E-03,-800.000
8.29600E-03,-800.000
8.30000E-03,-800.000
8.30400E-03,-800.000
8.30800E-03,-800.000
8.31200E-03,0.000
8.31600E-03,-800.000
8.32000E-03,-800.000
8.32400E-03,-800.000
8.32800E-03,-800.000
8.33200E-03,0.000
8.33600E-03,-800.000
8.34000E-03,-800.000
8.34400E-03,-800.000
8.34800E-03,0.000
8.35200E-03,-800.000
8.35600E-03,-800.000
8.36000E-03,-800.000
8.36400E-03,0.000
8.36800E-03,0.000
8.37200E-03,-800.000
8.37600E-03,-800.000
8.38000E-03,-800.000
8.38400E-03,0.000
8.38800E-03,-800.000
8.39200E-03,0.000
8.39600E-03,0.000
8.40000E-03,0.000
8.40400E-03,0.000
8.40800E-03,-800.000
8.41200E-03,-800.000
8.41600E-03,-800.000
8.42000E-03,-800.000
8.42400E-03,-800.000
8.42800E-03,-800.000
8.43200E-03,0.000
8.43600E-03,-800.000
8.44000E-03,-800.000
8.44400E-03,0.000
8.44800E-03,0.000
8.45200E-03,-800.000
8.45600E-03,-800.000
8.46000E-03,0.000
8.46400E-03,-800.000
8.46800E-03,0.000
8.47200E-03,0.000
8.47600E-03,-800.000
8.48000E-03,-1600.000
8.48400E-03,0.000
8.48800E-03,-800.000
8.49200E-03,0.000
8.49600E-03,-800.000
8.50000E-03,-800.000
8.50400E-03,-800.000
8.50800E-03,-800.000
8.51200E-03,-800.000
8.51600E-03,-800.000
8.52000E-03,-800.000
8.52400E-03,-800.000
8.52800E-03,-800.000
8.53200E-03,-800.000
8.53600E-03,-800.000
8.54000E-03,-800.000
8.54400E-03,-800.000
8.54800E-03,-800.000
8.55200E-03,-800.000
8.55600E-03,-800.000
8.56000E-03,-800.000
8.56400E-03,800.000
8.56800E-03,0.000
8.57200E-03,0.000
8.57600E-03,0.000
8.58000E-03,0.000
8.58400E-03,800.000
8.58800E-03,0.000
8.59200E-03,0.000
8.59600E-03,0.000
8.60000E-03,0.000
8.60400E-03,-800.000
8.60800E-03,-800.000
8.61200E-03,-800.000
8.61600E-03,-800.000
8.62000E-03,-1600.000
8.62400E-03,-800.000
8.62800E-03,0.000
8.63200E-03,0.000
8.63600E-03,0.000
8.64000E-03,0.000
8.64400E-03,0.000
8.64800E-03,0.000
8.65200E-03,-800.000
8.65600E-03,31199.998
8.66000E-03,47999.996
8.66400E-03,48800.000
8.66800E-03,50400.000
8.67200E-03,48800.000
8.67600E-03,48800.000
8.68000E-03,49600.000
8.68400E-03,49600.000
8.68800E-03,48800.000
8.69200E-03,48800.000
8.69600E-03,48800.000
8.70000E-03,49600.000
8.70400E-03,48800.000
8.70800E-03,48800.000
8.71200E-03,49600.000
8.71600E-03,50400.000
8.72000E-03,48800.000
8.72400E-03,49600.000
8.72800E-03,50400.000
8.73200E-03,49600.000
8.73600E-03,49600.000
8.74000E-03,49600.000
8.74400E-03,48800.000
8.74800E-03,49600.000
8.75200E-03,48800.000
8.75600E-03,48800.000
8.76000E-03,50400.000
8.76400E-03,48800.000
8.76800E-03,48800.000
8.77200E-03,49600.000
8.77600E-03,49600.000
8.78000E-03,48800.000
8.78400E-03,48800.000
8.78800E-03,49600.000
8.79200E-03,48800.000
8.79600E-03,49600.000
8.80000E-03,49600.000
8.80400E-03,48800.000
8.80800E-03,50400.000
8.81200E-03,48800.000
8.81600E-03,50400.000
8.82000E-03,48800.000
8.82400E-03,50400.000
8.82800E-03,49600.000
8.83200E-03,49600.000
8.83600E-03,49600.000
8.84000E-03,50400.000
8.84400E-03,49600.000
8.84800E-03,50400.000
8.85200E-03,48800.000
8.85600E-03,49600.000
8.86000E-03,48800.000
8.86400E-03,48800.000
8.86800E-03,50400.000
8.87200E-03,50400.000
8.87600E-03,49600.000
8.88000E-03,48800.000
8.88400E-03,48800.000
8.88800E-03,49600.000
8.89200E-03,50400.000
8.89600E-03,50400.000
8.90000E-03,49600.000
8.90400E-03,48800.000
8.90800E-03,49600.000
8.91200E-03,49600.000
8.91600E-03,49600.000
8.92000E-03,49600.000
8.92400E-03,49600.000
8.92800E-03,48800.000
8.93200E-03,49600.000
8.93600E-03,48800.000
8.94000E-03,50400.000
8.94400E-03,48800.000
8.94800E-03,49600.000
8.95200E-03,48800.000
8.95600E-03,50400.000
8.96000E-03,49600.000
8.96400E-03,48800.000
8.96800E-03,48800.000
8.97200E-03,50400.000
8.97600E-03,49600.000
8.98000E-03,50400.000
8.98400E-03,49600.000
8.98800E-03,48800.000
8.99200E-03,49600.000
8.99600E-03,48800.000
9.00000E-03,50400.000
9.00400E-03,49600.000
9.00800E-03,50400.000
9.01200E-03,49600.000
9.01600E-03,49600.000
9.02000E-03,48800.000
9.02400E-03,50400.000
9.02800E-03,48800.000
9.03200E-03,48800.000
9.03600E-03,48800.000
9.04000E-03,49600.000
9.04400E-03,48800.000
9.04800E-03,49600.000
9.05200E-03,50400.000
9.05600E-03,49600.000
9.06000E-03,49600.000
9.06400E-03,48800.000
9.06800E-03,49600.000
9.07200E-03,49600.000
9.07600E-03,48800.000
9.08000E-03,48800.000
9.08400E-03,48800.000
9.08800E-03,49600.000
9.09200E-03,49600.000
9.09600E-03,49600.000
9.10000E-03,49600.000
9.10400E-03,49600.000
9.10800E-03,48800.000
9.11200E-03,48800.000
9.11600E-03,49600.000
9.12000E-03,50400.000
9.12400E-03,49600.000
9.12800E-03,48800.000
9.13200E-03,48800.000
9.13600E-03,49600.000
9.14000E-03,48800.000
9.14400E-03,48800.000
9.14800E-03,49600.000
9.15200E-03,49600.000
9.15600E-03,42400.000
9.16000E-03,0.000
9.16400E-03,-800.000
9.16800E-03,-800.000
9.17200E-03,-800.000
9.17600E-03,-800.000
9.18000E-03,0.000
9.18400E-03,-800.000
9.18800E-03,-800.000
9.19200E-03,-800.000
9.19600E-03,-800.000
9.20000E-03,-800.000
9.20400E-03,0.000
9.20800E-03,0.000
9.21200E-03,0.000
9.21600E-03,0.000
9.22000E-03,0.000
9.22400E-03,-800.000
9.22800E-03,-800.000
9.23200E-03,0.000
9.23600E-03,0.000
9.24000E-03,0.000
9.24400E-03,-800.000
9.24800E-03,-800.000
9.25200E-03,0.000
9.25600E-03,0.000
9.26000E-03,0.000
9.26400E-03,-800.000
9.26800E-03,-800.000
9.27200E-03,-800.000
9.27600E-03,-800.000
9.28000E-03,0.000
9.28400E-03,-800.000
9.28800E-03,0.000
9.29200E-03,-800.000
9.29600E-03,-800.000
9.30000E-03,0.000
9.30400E-03,-800.000
9.30800E-03,0.000
9.31200E-03,0.000
9.31600E-03,-800.000
9.32000E-03,-800.000
9.32400E-03,800.000
9.32800E-03,0.000
9.33200E-03,0.000
9.33600E-03,0.000
9.34000E-03,-800.000
9.34400E-03,-800.000
9.34800E-03,-800.000
9.35200E-03,-800.000
9.35600E-03,-800.000
9.36000E-03,0.000
9.36400E-03,-800.000
9.36800E-03,-800.000
9.37200E-03,-800.000
9.37600E-03,-800.000
9.38000E-03,0.000
9.38400E-03,0.000
9.38800E-03,0.000
9.39200E-03,0.000
9.39600E-03,0.000
9.40000E-03,0.000
9.40400E-03,-800.000
9.40800E-03,-800.000
9.41200E-03,-800.000
9.41600E-03,-800.000
9.42000E-03,0.000
9.42400E-03,0.000
9.42800E-03,-800.000
9.43200E-03,-800.000
9.43600E-03,-800.000
9.44000E-03,-800.000
9.44400E-03,-800.000
9.44800E-03,-800.000
9.45200E-03,-800.000
9.45600E-03,-800.000
9.46000E-03,-800.000
9.46400E-03,0.000
9.46800E-03,-800.000
9.47200E-03,-800.000
9.47600E-03,-800.000
9.48000E-03,-800.000
9.48400E-03,0.000
9.48800E-03,0.000
9.49200E-03,0.000
9.49600E-03,0.000
9.50000E-03,0.000
9.50400E-03,0.000
9.50800E-03,-800.000
9.51200E-03,-800.000
9.51600E-03,-800.000
9.52000E-03,0.000
9.52400E-03,0.000
9.52800E-03,0.000
9.53200E-03,0.000
9.53600E-03,0.000
9.54000E-03,0.000
9.54400E-03,0.000
9.54800E-03,0.000
9.55200E-03,0.000
9.55600E-03,-800.000
9.56000E-03,0.000
9.56400E-03,0.000
9.56800E-03,0.000
9.57200E-03,-800.000
9.57600E-03,-800.000
9.58000E-03,-800.000
9.58400E-03,0.000
9.58800E-03,0.000
9.59200E-03,0.000
9.59600E-03,-800.000
9.60000E-03,-800.000
9.60400E-03,0.000
9.60800E-03,-800.000
9.61200E-03,-800.000
9.61600E-03,0.000
9.62000E-03,0.000
9.62400E-03,-800.000
9.62800E-03,-800.000
9.63200E-03,0.000
9.63600E-03,-800.000
9.64000E-03,-800.000
9.64400E-03,0.000
9.64800E-03,0.000
9.65200E-03,0.000
9.65600E-03,32800.000
9.66000E-03,48800.000
9.66400E-03,48800.000
9.66800E-03,50400.000
9.67200E-03,49600.000
9.67600E-03,50400.000
9.68000E-03,49600.000
9.68400E-03,49600.000
9.68800E-03,48800.000
9.69200E-03,48800.000
9.69600E-03,49600.000
9.70000E-03,48800.000
9.70400E-03,50400.000
9.70800E-03,48800.000
9.71200E-03,48800.000
9.71600E-03,49600.000
9.72000E-03,48800.000
9.72400E-03,48800.000
9.72800E-03,48800.000
9.73200E-03,48800.000
9.73600E-03,48800.000
9.74000E-03,48800.000
9.74400E-03,49600.000
9.74800E-03,48800.000
9.75200E-03,48800.000
9.75600E-03,48800.000
9.76000E-03,49600.000
9.76400E-03,48800.000
9.76800E-03,48800.000
9.77200E-03,50400.000
9.77600E-03,48800.000
9.78000E-03,48800.000
9.78400E-03,49600.000
9.78800E-03,50400.000
9.79200E-03,50400.000
9.79600E-03,49600.000
9.80000E-03,49600.000
9.80400E-03,49600.000
9.80800E-03,48800.000
9.81200E-03,50400.000
9.81600E-03,49600.000
9.82000E-03,49600.000
9.82400E-03,48800.000
9.82800E-03,50400.000
9.83200E-03,48800.000
9.83600E-03,48800.000
9.84000E-03,48800.000
9.84400E-03,48800.000
9.84800E-03,48800.000
9.85200E-03,49600.000
9.85600E-03,50400.000
9.86000E-03,48800.000
9.86400E-03,48800.000
9.86800E-03,48800.000
9.87200E-03,49600.000
9.87600E-03,49600.000
9.88000E-03,48800.000
9.88400E-03,49600.000
9.88800E-03,48800.000
9.89200E-03,48800.000
9.89600E-03,49600.000
9.90000E-03,48800.000
9.90400E-03,49600.000
9.90800E-03,49600.000
9.91200E-03,49600.000
9.91600E-03,49600.000
9.92000E-03,48800.000
9.92400E-03,48800.000
9.92800E-03,49600.000
9.93200E-03,50400.000
9.93600E-03,50400.000
9.94000E-03,48800.000
9.94400E-03,50400.000
9.94800E-03,49600.000
9.95200E-03,49600.000
9.95600E-03,48800.000
9.96000E-03,49600.000
9.96400E-03,49600.000
9.96800E-03,49600.000
9.97200E-03,49600.000
9.97600E-03,49600.000
9.98000E-03,48800.000
9.98400E-03,48800.000
9.98800E-03,49600.000
9.99200E-03,49600.000
9.99600E-03,48800.000
1.00000E-02,50400.000
1.00040E-02,48800.000
1.00080E-02,50400.000
1.00120E-02,48800.000
1.00160E-02,48800.000
1.00200E-02,48800.000
1.00240E-02,50400.000
1.00280E-02,48800.000
1.00320E-02,48800.000
1.00360E-02,48800.000
1.00400E-02,49600.000
1.00440E-02,49600.000
1.00480E-02,49600.000
1.00520E-02,49600.000
1.00560E-02,49600.000
1.00600E-02,50400.000
1.00640E-02,49600.000
1.00680E-02,48800.000
1.00720E-02,49600.000
1.00760E-02,50400.000
1.00800E-02,49600.000
1.00840E-02,50400.000
1.00880E-02,49600.000
1.00920E-02,49600.000
1.00960E-02,49600.000
1.01000E-02,49600.000
1.01040E-02,49600.000
1.01080E-02,48800.000
1.01120E-02,49600.000
1.01160E-02,49600.000
1.01200E-02,49600.000
1.01240E-02,49600.000
1.01280E-02,48800.000
1.01320E-02,48800.000
1.01360E-02,49600.000
1.01400E-02,49600.000
1.01440E-02,48800.000
1.01480E-02,48800.000
1.01520E-02,48800.000
1.01560E-02,40000.000
1.01600E-02,-800.000
1.01640E-02,0.000
1.01680E-02,0.000
1.01720E-02,-800.000
1.01760E-02,-800.000
1.01800E-02,-800.000
1.01840E-02,0.000
1.01880E-02,0.000
1.01920E-02,0.000
1.01960E-02,-800.000
1.02000E-02,-800.000
1.02040E-02,-800.000
1.02080E-02,-800.000
1.02120E-02,0.000
1.02160E-02,-800.000
1.02200E-02,-800.000
1.02240E-02,-800.000
1.02280E-02,0.000
1.02320E-02,0.000
1.02360E-02,-800.000
1.02400E-02,-800.000
1.02440E-02,0.000
1.02480E-02,-800.000
1.02520E-02,0.000
1.02560E-02,-800.000
1.02600E-02,-800.000
1.02640E-02,-800.000
1.02680E-02,-800.000
1.02720E-02,-800.000
1.02760E-02,0.000
1.02800E-02,0.000
1.02840E-02,-800.000
1.02880E-02,-800.000
1.02920E-02,0.000
1.02960E-02,-800.000
1.03000E-02,-800.000
1.03040E-02,-800.000
1.03080E-02,-800.000
1.03120E-02,-800.000
1.03160E-02,-800.000
1.03200E-02,0.000
1.03240E-02,-800.000
1.03280E-02,0.000
1.03320E-02,-800.000
1.03360E-02,-800.000
1.03400E-02,0.000
1.03440E-02,0.000
1.03480E-02,0.000
1.03520E-02,0.000
1.03560E-02,-800.000
1.03600E-02,-800.000
1.03640E-02,-800.000
1.03680E-02,0.000
1.03720E-02,0.000
1.03760E-02,0.000
1.03800E-02,-800.000
1.03840E-02,0.000
1.03880E-02,-800.000
1.03920E-02,-800.000
1.03960E-02,0.000
1.04000E-02,0.000
1.04040E-02,0.000
1.04080E-02,0.000
1.04120E-02,-800.000
1.04160E-02,-800.000
1.04200E-02,0.000
1.04240E-02,-800.000
1.04280E-02,-800.000
1.04320E-02,-800.000
1.04360E-02,0.000
1.04400E-02,0.000
1.04440E-02,-800.000
1.04480E-02,-800.000
1.04520E-02,0.000
1.04560E-02,0.000
1.04600E-02,-800.000
1.04640E-02,-800.000
1.04680E-02,-800.000
1.04720E-02,-800.000
1.04760E-02,-800.000
1.04800E-02,-800.000
1.04840E-02,0.000
1.04880E-02,0.000
1.04920E-02,-800.000
1.04960E-02,-800.000
1.05000E-02,-800.000
1.05040E-02,-800.000
1.05080E-02,-800.000
1.05120E-02,-800.000
1.05160E-02,-800.000
1.05200E-02,-800.000
1.05240E-02,-800.000
1.05280E-02,-800.000
1.05320E-02,-800.000
1.05360E-02,-800.000
1.05400E-02,0.000
1.05440E-02,0.000
1.05480E-02,-800.000
1.05520E-02,-800.000
1.05560E-02,0.000
1.05600E-02,0.000
1.05640E-02,0.000
1.05680E-02,0.000
1.05720E-02,0.000
1.05760E-02,0.000
1.05800E-02,0.000
1.05840E-02,-800.000
1.05880E-02,-800.000
1.05920E-02,0.000
1.05960E-02,0.000
1.06000E-02,0.000
1.06040E-02,0.000
1.06080E-02,-800.000
1.06120E-02,-800.000
1.06160E-02,-800.000
1.06200E-02,0.000
1.06240E-02,0.000
1.06280E-02,-800.000
1.06320E-02,-800.000
1.06360E-02,0.000
1.06400E-02,-800.000
1.06440E-02,-800.000
1.06480E-02,-800.000
1.06520E-02,0.000
1.06560E-02,32800.000
1.06600E-02,48800.000
1.06640E-02,49600.000
1.06680E-02,49600.000
1.06720E-02,49600.000
1.06760E-02,48800.000
1.06800E-02,49600.000
1.06840E-02,49600.000
1.06880E-02,49600.000
1.06920E-02,49600.000
1.06960E-02,48800.000
1.07000E-02,49600.000
1.07040E-02,48800.000
1.07080E-02,48800.000
1.07120E-02,49600.000
1.07160E-02,49600.000
1.07200E-02,49600.000
1.07240E-02,48800.000
1.07280E-02,49600.000
1.07320E-02,48800.000
1.07360E-02,48800.000
1.07400E-02,48800.000
1.07440E-02,50400.000
1.07480E-02,49600.000
1.07520E-02,48800.000
1.07560E-02,48800.000
1.07600E-02,49600.000
1.07640E-02,48800.000
1.07680E-02,48800.000
1.07720E-02,48800.000
1.07760E-02,48800.000
1.07800E-02,49600.000
1.07840E-02,48800.000
1.07880E-02,49600.000
1.07920E-02,49600.000
1.07960E-02,49600.000
1.08000E-02,49600.000
1.08040E-02,48800.000
1.08080E-02,49600.000
1.08120E-02,48800.000
1.08160E-02,49600.000
1.08200E-02,49600.000
1.08240E-02,48800.000
1.08280E-02,50400.000
1.08320E-02,48800.000
1.08360E-02,48800.000
1.08400E-02,49600.000
1.08440E-02,49600.000
1.08480E-02,48800.000
1.08520E-02,48800.000
1.08560E-02,50400.000
1.08600E-02,48800.000
1.08640E-02,48800.000
1.08680E-02,48800.000
1.08720E-02,50400.000
1.08760E-02,49600.000
1.08800E-02,49600.000
1.08840E-02,48800.000
1.08880E-02,48800.000
1.08920E-02,49600.000
1.08960E-02,49600.000
1.09000E-02,49600.000
1.09040E-02,48800.000
1.09080E-02,49600.000
1.09120E-02,49600.000
1.09160E-02,49600.000
1.09200E-02,49600.000
1.09240E-02,49600.000
1.09280E-02,48800.000
1.09320E-02,50400.000
1.09360E-02,50400.000
1.09400E-02,48800.000
1.09440E-02,49600.000
1.09480E-02,48800.000
1.09520E-02,49600.000
1.09560E-02,49600.000
1.09600E-02,48800.000
1.09640E-02,49600.000
1.09680E-02,49600.000
1.09720E-02,48800.000
1.09760E-02,48800.000
1.09800E-02,49600.000
1.09840E-02,49600.000
1.09880E-02,48800.000
1.09920E-02,49600.000
1.09960E-02,48800.000
1.10000E-02,48800.000
1.10040E-02,48800.000
1.10080E-02,48800.000
1.10120E-02,48800.000
1.10160E-02,49600.000
1.10200E-02,48800.000
1.10240E-02,48800.000
1.10280E-02,49600.000
1.10320E-02,48800.000
1.10360E-02,49600.000
1.10400E-02,50400.000
1.10440E-02,48800.000
1.10480E-02,48800.000
1.10520E-02,49600.000
1.10560E-02,49600.000
1.10600E-02,48800.000
1.10640E-02,48800.000
1.10680E-02,49600.000
1.10720E-02,48800.000
1.10760E-02,48800.000
1.10800E-02,49600.000
1.10840E-02,48800.000
1.10880E-02,48800.000
1.10920E-02,49600.000
1.10960E-02,48800.000
1.11000E-02,49600.000
1.11040E-02,49600.000
1.11080E-02,49600.000
1.11120E-02,48800.000
1.11160E-02,48800.000
1.11200E-02,48800.000
1.11240E-02,49600.000
1.11280E-02,50400.000
1.11320E-02,48800.000
1.11360E-02,50400.000
1.11400E-02,49600.000
1.11440E-02,49600.000
1.11480E-02,50400.000
1.11520E-02,49600.000
1.11560E-02,40000.000
1.11600E-02,0.000
1.11640E-02,0.000
1.11680E-02,-800.000
1.11720E-02,-800.000
1.11760E-02,-800.000
1.11800E-02,-800.000
1.11840E-02,-800.000
1.11880E-02,-800.000
1.11920E-02,-800.000
1.11960E-02,-800.000
1.12000E-02,-800.000
1.12040E-02,-800.000
1.12080E-02,-800.000
1.12120E-02,-800.000
1.12160E-02,-800.000
1.12200E-02,-800.000
1.12240E-02,-800.000
1.12280E-02,0.000
1.12320E-02,0.000
1.12360E-02,-800.000
1.12400E-02,0.000
1.12440E-02,0.000
1.12480E-02,0.000
1.12520E-02,0.000
1.12560E-02,0.000
1.12600E-02,0.000
1.12640E-02,0.000
1.12680E-02,-800.000
1.12720E-02,-800.000
1.12760E-02,-800.000
1.12800E-02,-800.000
1.12840E-02,-800.000
1.12880E-02,-800.000
1.12920E-02,-800.000
1.12960E-02,0.000
1.13000E-02,-800.000
1.13040E-02,0.000
1.13080E-02,0.000
1.13120E-02,-800.000
1.13160E-02,-800.000
1.13200E-02,-800.000
1.13240E-02,-800.000
1.13280E-02,-800.000
1.13320E-02,0.000
1.13360E-02,0.000
1.13400E-02,0.000
1.13440E-02,-800.000
1.13480E-02,-800.000
1.13520E-02,-800.000
1.13560E-02,0.000
1.13600E-02,-800.000
1.13640E-02,-800.000
1.13680E-02,-800.000
1.13720E-02,-800.000
1.13760E-02,-800.000
1.13800E-02,0.000
1.13840E-02,0.000
1.13880E-02,-800.000
1.13920E-02,-800.000
1.13960E-02,800.000
1.14000E-02,-800.000
1.14040E-02,0.000
1.14080E-02,0.000
1.14120E-02,-800.000
1.14160E-02,-800.000
1.14200E-02,0.000
1.14240E-02,-800.000
1.14280E-02,-800.000
1.14320E-02,-800.000
1.14360E-02,0.000
1.14400E-02,0.000
1.14440E-02,-800.000
1.14480E-02,-800.000
1.14520E-02,0.000
1.14560E-02,0.000
1.14600E-02,-800.000
1.14640E-02,-800.000
1.14680E-02,800.000
1.14720E-02,-800.000
1.14760E-02,0.000
1.14800E-02,-800.000
1.14840E-02,-800.000
1.14880E-02,-800.000
1.14920E-02,-800.000
1.14960E-02,0.000
1.15000E-02,0.000
1.15040E-02,0.000
1.15080E-02,0.000
1.15120E-02,0.000
1.15160E-02,0.000
1.15200E-02,-800.000
1.15240E-02,0.000
1.15280E-02,0.000
1.15320E-02,-800.000
1.15360E-02,-800.000
1.15400E-02,0.000
1.15440E-02,0.000
1.15480E-02,-800.000
1.15520E-02,-800.000
1.15560E-02,-800.000
1.15600E-02,-800.000
1.15640E-02,-800.000
1.15680E-02,-800.000
1.15720E-02,-1600.000
1.15760E-02,-800.000
1.15800E-02,-800.000
1.15840E-02,-800.000
1.15880E-02,0.000
1.15920E-02,0.000
1.15960E-02,0.000
1.16000E-02,0.000
1.16040E-02,-1600.000
1.16080E-02,-800.000
1.16120E-02,-800.000
1.16160E-02,-800.000
1.16200E-02,-800.000
1.16240E-02,0.000
1.16280E-02,-800.000
1.16320E-02,-800.000
1.16360E-02,0.000
1.16400E-02,-800.000
1.16440E-02,-800.000
1.16480E-02,-800.000
1.16520E-02,-800.000
1.16560E-02,32800.000
1.16600E-02,47999.996
1.16640E-02,49600.000
1.16680E-02,48800.000
1.16720E-02,48800.000
1.16760E-02,49600.000
1.16800E-02,48800.000
1.16840E-02,48800.000
1.16880E-02,50400.000
1.16920E-02,49600.000
1.16960E-02,48800.000
1.17000E-02,49600.000
1.17040E-02,49600.000
1.17080E-02,49600.000
1.17120E-02,49600.000
1.17160E-02,48800.000
1.17200E-02,48800.000
1.17240E-02,49600.000
1.17280E-02,48800.000
1.17320E-02,49600.000
1.17360E-02,49600.000
1.17400E-02,49600.000
1.17440E-02,49600.000
1.17480E-02,48800.000
1.17520E-02,48800.000
1.17560E-02,49600.000
1.17600E-02,50400.000
1.17640E-02,49600.000
1.17680E-02,48800.000
1.17720E-02,48800.000
1.17760E-02,48800.000
1.17800E-02,49600.000
1.17840E-02,48800.000
1.17880E-02,48800.000
1.17920E-02,48800.000
1.17960E-02,49600.000
1.18000E-02,50400.000
1.18040E-02,49600.000
1.18080E-02,50400.000
1.18120E-02,49600.000
1.18160E-02,49600.000
1.18200E-02,49600.000
1.18240E-02,49600.000
1.18280E-02,49600.000
1.18320E-02,50400.000
1.18360E-02,50400.000
1.18400E-02,48800.000
1.18440E-02,49600.000
1.18480E-02,49600.000
1.18520E-02,49600.000
1.18560E-02,49600.000
1.18600E-02,48800.000
1.18640E-02,49600.000
1.18680E-02,48800.000
1.18720E-02,49600.000
1.18760E-02,48800.000
1.18800E-02,49600.000
1.18840E-02,49600.000
1.18880E-02,50400.000
1.18920E-02,48800.000
1.18960E-02,48800.000
1.19000E-02,48800.000
1.19040E-02,49600.000
1.19080E-02,50400.000
1.19120E-02,48800.000
1.19160E-02,49600.000
1.19200E-02,48800.000
1.19240E-02,48800.000
1.19280E-02,49600.000
1.19320E-02,49600.000
1.19360E-02,49600.000
1.19400E-02,48800.000
1.19440E-02,48800.000
1.19480E-02,48800.000
1.19520E-02,50400.000
1.19560E-02,48800.000
1.19600E-02,49600.000
1.19640E-02,49600.000
1.19680E-02,50400.000
1.19720E-02,49600.000
1.19760E-02,48800.000
1.19800E-02,49600.000
1.19840E-02,48800.000
1.19880E-02,49600.000
1.19920E-02,49600.000
1.19960E-02,48800.000
1.20000E-02,49600.000
1.20040E-02,49600.000
1.20080E-02,49600.000
1.20120E-02,49600.000
1.20160E-02,49600.000
1.20200E-02,50400.000
1.20240E-02,48800.000
1.20280E-02,48800.000
1.20320E-02,49600.000
1.20360E-02,49600.000
1.20400E-02,49600.000
1.20440E-02,49600.000
1.20480E-02,48800.000
1.20520E-02,49600.000
1.20560E-02,49600.000
1.20600E-02,49600.000
1.20640E-02,49600.000
1.20680E-02,49600.000
1.20720E-02,48800.000
1.20760E-02,49600.000
1.20800E-02,48800.000
1.20840E-02,49600.000
1.20880E-02,49600.000
1.20920E-02,50400.000
1.20960E-02,49600.000
1.21000E-02,49600.000
1.21040E-02,48800.000
1.21080E-02,48800.000
1.21120E-02,48800.000
1.21160E-02,48800.000
1.21200E-02,48800.000
1.21240E-02,49600.000
1.21280E-02,48800.000
1.21320E-02,49600.000
1.21360E-02,49600.000
1.21400E-02,49600.000
1.21440E-02,48800.000
1.21480E-02,48800.000
1.21520E-02,48800.000
1.21560E-02,38400.000
1.21600E-02,-800.000
1.21640E-02,-800.000
1.21680E-02,-800.000
1.21720E-02,-800.000
1.21760E-02,-800.000
1.21800E-02,0.000
1.21840E-02,0.000
1.21880E-02,-800.000
1.21920E-02,-800.000
1.21960E-02,0.000
1.22000E-02,0.000
1.22040E-02,0.000
1.22080E-02,0.000
1.22120E-02,0.000
1.22160E-02,0.000
1.22200E-02,-800.000
1.22240E-02,-800.000
1.22280E-02,-800.000
1.22320E-02,-800.000
1.22360E-02,-800.000
1.22400E-02,-800.000
1.22440E-02,-800.000
1.22480E-02,-800.000
1.22520E-02,0.000
1.22560E-02,-800.000
1.22600E-02,-800.000
1.22640E-02,-800.000
1.22680E-02,0.000
1.22720E-02,0.000
1.22760E-02,0.000
1.22800E-02,-800.000
1.22840E-02,0.000
1.22880E-02,-800.000
1.22920E-02,-800.000
1.22960E-02,-800.000
1.23000E-02,-800.000
1.23040E-02,0.000
1.23080E-02,-800.000
1.23120E-02,-800.000
1.23160E-02,-800.000
1.23200E-02,0.000
1.23240E-02,-800.000
1.23280E-02,-800.000
1.23320E-02,-800.000
1.23360E-02,-800.000
1.23400E-02,-800.000
1.23440E-02,-800.000
1.23480E-02,-800.000
1.23520E-02,-800.000
1.23560E-02,0.000
1.23600E-02,-800.000
1.23640E-02,0.000
1.23680E-02,-800.000
1.23720E-02,-800.000
1.23760E-02,0.000
1.23800E-02,-800.000
1.23840E-02,-800.000
1.23880E-02,-800.000
1.23920E-02,0.000
1.23960E-02,-800.000
1.24000E-02,-800.000
1.24040E-02,-800.000
1.24080E-02,-800.000
1.24120E-02,-800.000
1.24160E-02,0.000
1.24200E-02,-800.000
1.24240E-02,-800.000
1.24280E-02,0.000
1.24320E-02,0.000
1.24360E-02,-800.000
1.24400E-02,-800.000
1.24440E-02,-800.000
1.24480E-02,0.000
1.24520E-02,0.000
1.24560E-02,-800.000
1.24600E-02,0.000
1.24640E-02,0.000
1.24680E-02,-800.000
1.24720E-02,-800.000
1.24760E-02,0.000
1.24800E-02,-800.000
1.24840E-02,-800.000
1.24880E-02,-800.000
1.24920E-02,-800.000
1.24960E-02,-800.000
1.25000E-02,-800.000
1.25040E-02,0.000
1.25080E-02,-800.000
1.25120E-02,-800.000
1.25160E-02,-800.000
1.25200E-02,-800.000
1.25240E-02,0.000
1.25280E-02,-800.000
1.25320E-02,-800.000
1.25360E-02,-800.000
1.25400E-02,0.000
1.25440E-02,0.000
1.25480E-02,800.000
1.25520E-02,-800.000
1.25560E-02,-800.000
1.25600E-02,0.000
1.25640E-02,-800.000
1.25680E-02,0.000
1.25720E-02,-800.000
1.25760E-02,0.000
1.25800E-02,-800.000
1.25840E-02,-800.000
1.25880E-02,-800.000
1.25920E-02,0.000
1.25960E-02,-800.000
1.26000E-02,-800.000
1.26040E-02,-800.000
1.26080E-02,-800.000
1.26120E-02,-800.000
1.26160E-02,-800.000
1.26200E-02,0.000
1.26240E-02,800.000
1.26280E-02,0.000
1.26320E-02,0.000
1.26360E-02,0.000
1.26400E-02,0.000
1.26440E-02,0.000
1.26480E-02,-800.000
1.26520E-02,0.000
1.26560E-02,33600.000
1.26600E-02,48800.000
1.26640E-02,50400.000
1.26680E-02,48800.000
1.26720E-02,49600.000
1.26760E-02,48800.000
1.26800E-02,48800.000
1.26840E-02,49600.000
1.26880E-02,49600.000
1.26920E-02,49600.000
1.26960E-02,48800.000
1.27000E-02,49600.000
1.27040E-02,49600.000
1.27080E-02,49600.000
1.27120E-02,49600.000
1.27160E-02,48800.000
1.27200E-02,49600.000
1.27240E-02,49600.000
1.27280E-02,50400.000
1.27320E-02,48800.000
1.27360E-02,48800.000
1.27400E-02,48800.000
1.27440E-02,48800.000
1.27480E-02,49600.000
1.27520E-02,50400.000
1.27560E-02,50400.000
1.27600E-02,49600.000
1.27640E-02,50400.000
1.27680E-02,49600.000
1.27720E-02,48800.000
1.27760E-02,50400.000
1.27800E-02,49600.000
1.27840E-02,48800.000
1.27880E-02,49600.000
1.27920E-02,49600.000
1.27960E-02,49600.000
1.28000E-02,50400.000
1.28040E-02,49600.000
1.28080E-02,50400.000
1.28120E-02,48800.000
1.28160E-02,49600.000
1.28200E-02,49600.000
1.28240E-02,49600.000
1.28280E-02,48800.000
1.28320E-02,48800.000
1.28360E-02,49600.000
1.28400E-02,49600.000
1.28440E-02,49600.000
1.28480E-02,50400.000
1.28520E-02,50400.000
1.28560E-02,48800.000
1.28600E-02,49600.000
1.28640E-02,48800.000
1.28680E-02,48800.000
1.28720E-02,50400.000
1.28760E-02,48800.000
1.28800E-02,48800.000
1.28840E-02,49600.000
1.28880E-02,49600.000
1.28920E-02,49600.000
1.28960E-02,49600.000
1.29000E-02,49600.000
1.29040E-02,48800.000
1.29080E-02,49600.000
1.29120E-02,49600.000
1.29160E-02,49600.000
1.29200E-02,48800.000
1.29240E-02,50400.000
1.29280E-02,49600.000
1.29320E-02,49600.000
1.29360E-02,48800.000
1.29400E-02,49600.000
1.29440E-02,49600.000
1.29480E-02,49600.000
1.29520E-02,48800.000
1.29560E-02,49600.000
1.29600E-02,49600.000
1.29640E-02,49600.000
1.29680E-02,49600.000
1.29720E-02,49600.000
1.29760E-02,48800.000
1.29800E-02,48800.000
1.29840E-02,49600.000
1.29880E-02,48800.000
1.29920E-02,49600.000
1.29960E-02,48800.000
1.30000E-02,49600.000
1.30040E-02,49600.000
1.30080E-02,49600.000
1.30120E-02,48800.000
1.30160E-02,49600.000
1.30200E-02,49600.000
1.30240E-02,50400.000
1.30280E-02,48800.000
1.30320E-02,48800.000
1.30360E-02,50400.000
1.30400E-02,48800.000
1.30440E-02,48800.000
1.30480E-02,48800.000
1.30520E-02,48800.000
1.30560E-02,49600.000
1.30600E-02,49600.000
1.30640E-02,49600.000
1.30680E-02,48800.000
1.30720E-02,49600.000
1.30760E-02,49600.000
1.30800E-02,48800.000
1.30840E-02,49600.000
1.30880E-02,48800.000
1.30920E-02,49600.000
1.30960E-02,49600.000
1.31000E-02,49600.000
1.31040E-02,49600.000
1.31080E-02,49600.000
1.31120E-02,48800.000
1.31160E-02,49600.000
1.31200E-02,48800.000
1.31240E-02,48800.000
1.31280E-02,49600.000
1.31320E-02,50400.000
1.31360E-02,49600.000
1.31400E-02,48800.000
1.31440E-02,48800.000
1.31480E-02,48800.000
1.31520E-02,49600.000
1.31560E-02,36800.000
1.31600E-02,-800.000
1.31640E-02,0.000
1.31680E-02,-800.000
1.31720E-02,-800.000
1.31760E-02,-800.000
1.31800E-02,-800.000
1.31840E-02,-800.000
1.31880E-02,-800.000
1.31920E-02,0.000
1.31960E-02,-800.000
1.32000E-02,-800.000
1.32040E-02,-800.000
1.32080E-02,0.000
1.32120E-02,0.000
1.32160E-02,-800.000
1.32200E-02,-800.000
1.32240E-02,0.000
1.32280E-02,-800.000
1.32320E-02,0.000
1.32360E-02,0.000
1.32400E-02,0.000
1.32440E-02,800.000
1.32480E-02,-800.000
1.32520E-02,-800.000
1.32560E-02,0.000
1.32600E-02,-800.000
1.32640E-02,-800.000
1.32680E-02,0.000
1.32720E-02,-800.000
1.32760E-02,-800.000
1.32800E-02,800.000
1.32840E-02,0.000
1.32880E-02,0.000
1.32920E-02,-800.000
1.32960E-02,-800.000
1.33000E-02,0.000
1.33040E-02,0.000
1.33080E-02,0.000
1.33120E-02,-800.000
1.33160E-02,0.000
1.33200E-02,0.000
1.33240E-02,-800.000
1.33280E-02,-800.000
1.33320E-02,-800.000
1.33360E-02,0.000
1.33400E-02,-800.000
1.33440E-02,-800.000
1.33480E-02,0.000
1.33520E-02,-800.000
1.33560E-02,-800.000
1.33600E-02,-800.000
1.33640E-02,-1600.000
1.33680E-02,-800.000
1.33720E-02,-800.000
1.33760E-02,-800.000
1.33800E-02,-800.000
1.33840E-02,0.000
1.33880E-02,0.000
1.33920E-02,-800.000
1.33960E-02,-800.000
1.34000E-02,-800.000
1.34040E-02,-800.000
1.34080E-02,-800.000
1.34120E-02,0.000
1.34160E-02,0.000
1.34200E-02,0.000
1.34240E-02,0.000
1.34280E-02,0.000
1.34320E-02,0.000
1.34360E-02,-800.000
1.34400E-02,-800.000
1.34440E-02,0.000
1.34480E-02,-800.000
1.34520E-02,-800.000
1.34560E-02,0.000
1.34600E-02,0.000
1.34640E-02,0.000
1.34680E-02,0.000
1.34720E-02,-800.000
1.34760E-02,-800.000
1.34800E-02,-800.000
1.34840E-02,-800.000
1.34880E-02,0.000
1.34920E-02,-800.000
1.34960E-02,-800.000
1.35000E-02,0.000
1.35040E-02,0.000
1.35080E-02,0.000
1.35120E-02,0.000
1.35160E-02,0.000
1.35200E-02,0.000
1.35240E-02,0.000
1.35280E-02,0.000
1.35320E-02,-800.000
1.35360E-02,-800.000
1.35400E-02,0.000
1.35440E-02,-800.000
1.35480E-02,-800.000
1.35520E-02,-800.000
1.35560E-02,0.000
1.35600E-02,-800.000
1.35640E-02,800.000
1.35680E-02,0.000
1.35720E-02,-800.000
1.35760E-02,-800.000
1.35800E-02,-800.000
1.35840E-02,-800.000
1.35880E-02,-800.000
1.35920E-02,-800.000
1.35960E-02,-800.000
1.36000E-02,0.000
1.36040E-02,0.000
1.36080E-02,-800.000
1.36120E-02,-800.000
1.36160E-02,0.000
1.36200E-02,-800.000
1.36240E-02,0.000
1.36280E-02,-800.000
1.36320E-02,-800.000
1.36360E-02,-800.000
1.36400E-02,-800.000
1.36440E-02,-800.000
1.36480E-02,-800.000
1.36520E-02,0.000
1.36560E-02,33600.000
1.36600E-02,47999.996
1.36640E-02,50400.000
1.36680E-02,49600.000
1.36720E-02,48800.000
1.36760E-02,49600.000
1.36800E-02,48800.000
1.36840E-02,49600.000
1.36880E-02,48800.000
1.36920E-02,49600.000
1.36960E-02,48800.000
1.37000E-02,48800.000
1.37040E-02,49600.000
1.37080E-02,49600.000
1.37120E-02,48800.000
1.37160E-02,49600.000
1.37200E-02,49600.000
1.37240E-02,49600.000
1.37280E-02,50400.000
1.37320E-02,49600.000
1.37360E-02,49600.000
1.37400E-02,49600.000
1.37440E-02,48800.000
1.37480E-02,48800.000
1.37520E-02,48800.000
1.37560E-02,50400.000
1.37600E-02,49600.000
1.37640E-02,48800.000
1.37680E-02,49600.000
1.37720E-02,48800.000
1.37760E-02,48800.000
1.37800E-02,50400.000
1.37840E-02,49600.000
1.37880E-02,48800.000
1.37920E-02,50400.000
1.37960E-02,49600.000
1.38000E-02,49600.000
1.38040E-02,48800.000
1.38080E-02,49600.000
1.38120E-02,49600.000
1.38160E-02,50400.000
1.38200E-02,49600.000
1.38240E-02,48800.000
1.38280E-02,49600.000
1.38320E-02,49600.000
1.38360E-02,48800.000
1.38400E-02,49600.000
1.38440E-02,49600.000
1.38480E-02,49600.000
1.38520E-02,48800.000
1.38560E-02,49600.000
1.38600E-02,48800.000
1.38640E-02,49600.000
1.38680E-02,48800.000
1.38720E-02,49600.000
1.38760E-02,48800.000
1.38800E-02,49600.000
1.38840E-02,48800.000
1.38880E-02,48800.000
1.38920E-02,49600.000
1.38960E-02,49600.000
1.39000E-02,49600.000
1.39040E-02,48800.000
1.39080E-02,48800.000
1.39120E-02,48800.000
1.39160E-02,49600.000
1.39200E-02,49600.000
1.39240E-02,49600.000
1.39280E-02,49600.000
1.39320E-02,49600.000
1.39360E-02,48800.000
1.39400E-02,48800.000
1.39440E-02,49600.000
1.39480E-02,48800.000
1.39520E-02,49600.000
1.39560E-02,49600.000
1.39600E-02,48800.000
1.39640E-02,49600.000
1.39680E-02,50400.000
1.39720E-02,48800.000
1.39760E-02,49600.000
1.39800E-02,48800.000
1.39840E-02,49600.000
1.39880E-02,48800.000
1.39920E-02,49600.000
1.39960E-02,48800.000
1.40000E-02,49600.000
1.40040E-02,48800.000
1.40080E-02,49600.000
1.40120E-02,49600.000
1.40160E-02,48800.000
1.40200E-02,48800.000
1.40240E-02,50400.000
1.40280E-02,48800.000
1.40320E-02,49600.000
1.40360E-02,49600.000
1.40400E-02,49600.000
1.40440E-02,49600.000
1.40480E-02,49600.000
1.40520E-02,49600.000
1.40560E-02,48800.000
1.40600E-02,49600.000
1.40640E-02,48800.000
1.40680E-02,49600.000
1.40720E-02,48800.000
1.40760E-02,50400.000
1.40800E-02,48800.000
1.40840E-02,49600.000
1.40880E-02,49600.000
1.40920E-02,48800.000
1.40960E-02,48800.000
1.41000E-02,48800.000
1.41040E-02,48800.000
1.41080E-02,49600.000
1.41120E-02,48800.000
1.41160E-02,48800.000
1.41200E-02,49600.000
1.41240E-02,49600.000
1.41280E-02,49600.000
1.41320E-02,50400.000
1.41360E-02,48800.000
1.41400E-02,49600.000
1.41440E-02,49600.000
1.41480E-02,49600.000
1.41520E-02,48800.000
1.41560E-02,36000.000
1.41600E-02,0.000
1.41640E-02,-800.000
1.41680E-02,-800.000
1.41720E-02,0.000
1.41760E-02,0.000
1.41800E-02,-800.000
1.41840E-02,-800.000
1.41880E-02,-800.000
1.41920E-02,-800.000
1.41960E-02,0.000
1.42000E-02,0.000
1.42040E-02,0.000
1.42080E-02,0.000
1.42120E-02,-800.000
1.42160E-02,-800.000
1.42200E-02,-800.000
1.42240E-02,-800.000
1.42280E-02,-800.000
1.42320E-02,-800.000
1.42360E-02,-800.000
1.42400E-02,800.000
1.42440E-02,-800.000
1.42480E-02,-800.000
1.42520E-02,-800.000
1.42560E-02,0.000
1.42600E-02,-800.000
1.42640E-02,0.000
1.42680E-02,0.000
1.42720E-02,-800.000
1.42760E-02,-800.000
1.42800E-02,-800.000
1.42840E-02,-800.000
1.42880E-02,-800.000
1.42920E-02,0.000
1.42960E-02,-800.000
1.43000E-02,0.000
1.43040E-02,0.000
1.43080E-02,-800.000
1.43120E-02,-800.000
1.43160E-02,-800.000
1.43200E-02,-800.000
1.43240E-02,-800.000
1.43280E-02,-800.000
1.43320E-02,-800.000
1.43360E-02,-800.000
1.43400E-02,0.000
1.43440E-02,0.000
1.43480E-02,0.000
1.43520E-02,-800.000
1.43560E-02,-800.000
1.43600E-02,0.000
1.43640E-02,-1600.000
1.43680E-02,-800.000
1.43720E-02,-800.000
1.43760E-02,0.000
1.43800E-02,-800.000
1.43840E-02,-800.000
1.43880E-02,-800.000
1.43920E-02,-800.000
1.43960E-02,-800.000
1.44000E-02,0.000
1.44040E-02,0.000
1.44080E-02,-800.000
1.44120E-02,-800.000
1.44160E-02,-800.000
1.44200E-02,0.000
1.44240E-02,0.000
1.44280E-02,0.000
1.44320E-02,0.000
1.44360E-02,0.000
1.44400E-02,-800.000
1.44440E-02,-800.000
1.44480E-02,0.000
1.44520E-02,-800.000
1.44560E-02,-800.000
1.44600E-02,-800.000
1.44640E-02,-800.000
1.44680E-02,-800.000
1.44720E-02,0.000
1.44760E-02,0.000
1.44800E-02,-800.000
1.44840E-02,0.000
1.44880E-02,-800.000
1.44920E-02,-800.000
1.44960E-02,0.000
1.45000E-02,-800.000
1.45040E-02,-800.000
1.45080E-02,-800.000
1.45120E-02,0.000
1.45160E-02,-800.000
1.45200E-02,-800.000
1.45240E-02,-800.000
1.45280E-02,0.000
1.45320E-02,-800.000
1.45360E-02,-800.000
1.45400E-02,-800.000
1.45440E-02,0.000
1.45480E-02,0.000
1.45520E-02,0.000
1.45560E-02,-800.000
1.45600E-02,0.000
1.45640E-02,0.000
1.45680E-02,-800.000
1.45720E-02,0.000
1.45760E-02,-800.000
1.45800E-02,-800.000
1.45840E-02,0.000
1.45880E-02,0.000
1.45920E-02,0.000
1.45960E-02,800.000
1.46000E-02,-800.000
1.46040E-02,-800.000
1.46080E-02,0.000
1.46120E-02,0.000
1.46160E-02,0.000
1.46200E-02,0.000
1.46240E-02,0.000
1.46280E-02,-800.000
1.46320E-02,-800.000
1.46360E-02,-800.000
1.46400E-02,-800.000
1.46440E-02,0.000
1.46480E-02,-800.000
1.46520E-02,-800.000
1.46560E-02,32800.000
1.46600E-02,48800.000
1.46640E-02,50400.000
1.46680E-02,49600.000
1.46720E-02,49600.000
1.46760E-02,48800.000
1.46800E-02,48800.000
1.46840E-02,49600.000
1.46880E-02,48800.000
1.46920E-02,48800.000
1.46960E-02,50400.000
1.47000E-02,49600.000
1.47040E-02,49600.000
1.47080E-02,48800.000
1.47120E-02,48800.000
1.47160E-02,49600.000
1.47200E-02,49600.000
1.47240E-02,49600.000
1.47280E-02,48800.000
1.47320E-02,50400.000
1.47360E-02,48800.000
1.47400E-02,49600.000
1.47440E-02,49600.000
1.47480E-02,49600.000
1.47520E-02,49600.000
1.47560E-02,48800.000
1.47600E-02,49600.000
1.47640E-02,49600.000
1.47680E-02,48800.000
1.47720E-02,48800.000
1.47760E-02,49600.000
1.47800E-02,49600.000
1.47840E-02,48800.000
1.47880E-02,50400.000
1.47920E-02,49600.000
1.47960E-02,50400.000
1.48000E-02,49600.000
1.48040E-02,48800.000
1.48080E-02,49600.000
1.48120E-02,49600.000
1.48160E-02,49600.000
1.48200E-02,49600.000
1.48240E-02,48800.000
1.48280E-02,48800.000
1.48320E-02,50400.000
1.48360E-02,49600.000
1.48400E-02,48800.000
1.48440E-02,48800.000
1.48480E-02,49600.000
1.48520E-02,49600.000
1.48560E-02,48800.000
1.48600E-02,49600.000
1.48640E-02,49600.000
1.48680E-02,48800.000
1.48720E-02,49600.000
1.48760E-02,49600.000
1.48800E-02,49600.000
1.48840E-02,48800.000
1.48880E-02,49600.000
1.48920E-02,50400.000
1.48960E-02,48800.000
1.49000E-02,48800.000
1.49040E-02,49600.000
1.49080E-02,49600.000
1.49120E-02,49600.000
1.49160E-02,49600.000
1.49200E-02,48800.000
1.49240E-02,49600.000
1.49280E-02,48800.000
1.49320E-02,48800.000
1.49360E-02,49600.000
1.49400E-02,48800.000
1.49440E-02,48800.000
1.49480E-02,48800.000
1.49520E-02,49600.000
1.49560E-02,50400.000
1.49600E-02,48800.000
1.49640E-02,49600.000
1.49680E-02,48800.000
1.49720E-02,48800.000
1.49760E-02,48800.000
1.49800E-02,49600.000
1.49840E-02,48800.000
1.49880E-02,49600.000
1.49920E-02,49600.000
1.49960E-02,49600.000
1.50000E-02,50400.000
1.50040E-02,48800.000
1.50080E-02,48800.000
1.50120E-02,48800.000
1.50160E-02,49600.000
1.50200E-02,48800.000
1.50240E-02,50400.000
1.50280E-02,49600.000
1.50320E-02,49600.000
1.50360E-02,49600.000
1.50400E-02,49600.000
1.50440E-02,49600.000
1.50480E-02,49600.000
1.50520E-02,49600.000
1.50560E-02,49600.000
1.50600E-02,50400.000
1.50640E-02,50400.000
1.50680E-02,50400.000
1.50720E-02,48800.000
1.50760E-02,48800.000
1.50800E-02,48800.000
1.50840E-02,48800.000
1.50880E-02,49600.000
1.50920E-02,49600.000
1.50960E-02,48800.000
1.51000E-02,49600.000
1.51040E-02,49600.000
1.51080E-02,49600.000
1.51120E-02,48800.000
1.51160E-02,48800.000
1.51200E-02,49600.000
1.51240E-02,49600.000
1.51280E-02,48800.000
1.51320E-02,49600.000
1.51360E-02,48800.000
1.51400E-02,50400.000
1.51440E-02,49600.000
1.51480E-02,48800.000
1.51520E-02,49600.000
1.51560E-02,34400.000
1.51600E-02,0.000
1.51640E-02,-800.000
1.51680E-02,0.000
1.51720E-02,0.000
1.51760E-02,0.000
1.51800E-02,-800.000
1.51840E-02,0.000
1.51880E-02,-800.000
1.51920E-02,-800.000
1.51960E-02,-800.000
1.52000E-02,-800.000
1.52040E-02,-800.000
1.52080E-02,-800.000
1.52120E-02,-800.000
1.52160E-02,-800.000
1.52200E-02,-800.000
1.52240E-02,-800.000
1.52280E-02,-800.000
1.52320E-02,-800.000
1.52360E-02,-800.000
1.52400E-02,-800.000
1.52440E-02,0.000
1.52480E-02,-800.000
1.52520E-02,-800.000
1.52560E-02,-800.000
1.52600E-02,0.000
1.52640E-02,-800.000
1.52680E-02,0.000
1.52720E-02,0.000
1.52760E-02,-800.000
1.52800E-02,-800.000
1.52840E-02,0.000
1.52880E-02,0.000
1.52920E-02,-800.000
1.52960E-02,0.000
1.53000E-02,0.000
1.53040E-02,0.000
1.53080E-02,0.000
1.53120E-02,-800.000
1.53160E-02,-800.000
1.53200E-02,0.000
1.53240E-02,-800.000
1.53280E-02,-800.000
1.53320E-02,-800.000
1.53360E-02,0.000
1.53400E-02,0.000
1.53440E-02,-800.000
1.53480E-02,-800.000
1.53520E-02,0.000
1.53560E-02,-800.000
1.53600E-02,-800.000
1.53640E-02,0.000
1.53680E-02,0.000
1.53720E-02,0.000
1.53760E-02,0.000
1.53800E-02,-800.000
1.53840E-02,0.000
1.53880E-02,0.000
1.53920E-02,-800.000
1.53960E-02,-800.000
1.54000E-02,0.000
1.54040E-02,0.000
1.54080E-02,-800.000
1.54120E-02,-800.000
1.54160E-02,-800.000
1.54200E-02,-800.000
1.54240E-02,-800.000
1.54280E-02,0.000
1.54320E-02,-800.000
1.54360E-02,-800.000
1.54400E-02,-800.000
1.54440E-02,-800.000
1.54480E-02,-800.000
1.54520E-02,0.000
1.54560E-02,-800.000
1.54600E-02,-800.000
1.54640E-02,-800.000
1.54680E-02,0.000
1.54720E-02,-800.000
1.54760E-02,-800.000
1.54800E-02,0.000
1.54840E-02,-800.000
1.54880E-02,-800.000
1.54920E-02,-800.000
1.54960E-02,-800.000
1.55000E-02,0.000
1.55040E-02,-800.000
1.55080E-02,-800.000
1.55120E-02,-800.000
1.55160E-02,-800.000
1.55200E-02,-800.000
1.55240E-02,0.000
1.55280E-02,0.000
1.55320E-02,-800.000
1.55360E-02,-800.000
1.55400E-02,0.000
1.55440E-02,0.000
1.55480E-02,0.000
1.55520E-02,-800.000
1.55560E-02,-800.000
1.55600E-02,0.000
1.55640E-02,-800.000
1.55680E-02,-800.000
1.55720E-02,-800.000
1.55760E-02,0.000
1.55800E-02,-800.000
1.55840E-02,-800.000
1.55880E-02,-800.000
1.55920E-02,-800.000
1.55960E-02,-800.000
1.56000E-02,-800.000
1.56040E-02,-800.000
1.56080E-02,0.000
1.56120E-02,0.000
1.56160E-02,0.000
1.56200E-02,-800.000
1.56240E-02,-800.000
1.56280E-02,-800.000
1.56320E-02,0.000
1.56360E-02,-800.000
1.56400E-02,-800.000
1.56440E-02,0.000
1.56480E-02,0.000
1.56520E-02,-800.000
1.56560E-02,34400.000
1.56600E-02,48800.000
1.56640E-02,49600.000
1.56680E-02,49600.000
1.56720E-02,49600.000
1.56760E-02,49600.000
1.56800E-02,50400.000
1.56840E-02,49600.000
1.56880E-02,49600.000
1.56920E-02,48800.000
1.56960E-02,49600.000
1.57000E-02,49600.000
1.57040E-02,48800.000
1.57080E-02,48800.000
1.57120E-02,49600.000
1.57160E-02,50400.000
1.57200E-02,48800.000
1.57240E-02,48800.000
1.57280E-02,48800.000
1.57320E-02,49600.000
1.57360E-02,49600.000
1.57400E-02,48800.000
1.57440E-02,49600.000
1.57480E-02,50400.000
1.57520E-02,49600.000
1.57560E-02,49600.000
1.57600E-02,49600.000
1.57640E-02,48800.000
1.57680E-02,50400.000
1.57720E-02,49600.000
1.57760E-02,48800.000
1.57800E-02,50400.000
1.57840E-02,48800.000
1.57880E-02,48800.000
1.57920E-02,49600.000
1.57960E-02,49600.000
1.58000E-02,48800.000
1.58040E-02,49600.000
1.58080E-02,50400.000
1.58120E-02,48800.000
1.58160E-02,48800.000
1.58200E-02,50400.000
1.58240E-02,49600.000
1.58280E-02,49600.000
1.58320E-02,49600.000
1.58360E-02,48800.000
1.58400E-02,49600.000
1.58440E-02,48800.000
1.58480E-02,48800.000
1.58520E-02,48800.000
1.58560E-02,48800.000
1.58600E-02,49600.000
1.58640E-02,49600.000
1.58680E-02,50400.000
1.58720E-02,48800.000
1.58760E-02,48800.000
1.58800E-02,48800.000
1.58840E-02,48800.000
1.58880E-02,50400.000
1.58920E-02,48800.000
1.58960E-02,49600.000
1.59000E-02,49600.000
1.59040E-02,48800.000
1.59080E-02,49600.000
1.59120E-02,48800.000
1.59160E-02,48800.000
1.59200E-02,50400.000
1.59240E-02,49600.000
1.59280E-02,49600.000
1.59320E-02,49600.000
1.59360E-02,48800.000
1.59400E-02,49600.000
1.59440E-02,48800.000
1.59480E-02,48800.000
1.59520E-02,49600.000
1.59560E-02,49600.000
1.59600E-02,48800.000
1.59640E-02,49600.000
1.59680E-02,48800.000
1.59720E-02,48800.000
1.59760E-02,48800.000
1.59800E-02,49600.000
1.59840E-02,48800.000
1.59880E-02,49600.000
1.59920E-02,49600.000
1.59960E-02,49600.000
1.60000E-02,48800.000
1.60040E-02,49600.000
1.60080E-02,49600.000
1.60120E-02,49600.000
1.60160E-02,49600.000
1.60200E-02,49600.000
1.60240E-02,49600.000
1.60280E-02,49600.000
1.60320E-02,48800.000
1.60360E-02,48800.000
1.60400E-02,49600.000
1.60440E-02,49600.000
1.60480E-02,48800.000
1.60520E-02,48800.000
1.60560E-02,48800.000
1.60600E-02,48800.000
1.60640E-02,49600.000
1.60680E-02,49600.000
1.60720E-02,49600.000
1.60760E-02,48800.000
1.60800E-02,49600.000
1.60840E-02,48800.000
1.60880E-02,50400.000
1.60920E-02,49600.000
1.60960E-02,49600.000
1.61000E-02,50400.000
1.61040E-02,48800.000
1.61080E-02,49600.000
1.61120E-02,50400.000
1.61160E-02,49600.000
1.61200E-02,49600.000
1.61240E-02,49600.000
1.61280E-02,48800.000
1.61320E-02,49600.000
1.61360E-02,48800.000
1.61400E-02,49600.000
1.61440E-02,49600.000
1.61480E-02,48800.000
1.61520E-02,48800.000
1.61560E-02,33600.000
1.61600E-02,0.000
1.61640E-02,800.000
1.61680E-02,-800.000
1.61720E-02,-800.000
1.61760E-02,0.000
1.61800E-02,0.000
1.61840E-02,0.000
1.61880E-02,0.000
1.61920E-02,0.000
1.61960E-02,-800.000
1.62000E-02,-800.000
1.62040E-02,-800.000
1.62080E-02,-800.000
1.62120E-02,-800.000
1.62160E-02,-800.000
1.62200E-02,-1600.000
1.62240E-02,0.000
1.62280E-02,0.000
1.62320E-02,-800.000
1.62360E-02,-800.000
1.62400E-02,-800.000
1.62440E-02,-800.000
1.62480E-02,-800.000
1.62520E-02,-800.000
1.62560E-02,-800.000
